"Time (s)","Linear Acceleration x (m/s^2)","Linear Acceleration y (m/s^2)","Linear Acceleration z (m/s^2)"
9.308497000E-3,1.846885681E-2,-5.442976952E-2,4.209146500E-1
1.430849700E-2,7.073211670E-2,-1.404561996E-1,8.183708191E-1
1.930849700E-2,1.444759369E-1,-2.492175102E-1,1.136497498E0
2.430849700E-2,2.246809006E-1,-3.229639530E-1,1.298089027E0
2.930849700E-2,3.058805466E-1,-3.486206532E-1,1.226012230E0
3.430849700E-2,3.159008026E-1,-3.347930908E-1,9.425334930E-1
3.930849700E-2,2.290792465E-1,-2.486147881E-1,5.112953186E-1
4.430849700E-2,9.688329697E-2,-9.271860123E-2,3.402423859E-2
4.930849700E-2,-3.431892395E-2,1.314051151E-1,-4.822111130E-1
5.430849700E-2,-1.769552231E-1,3.750667572E-1,-8.649501801E-1
5.930849700E-2,-2.833738327E-1,6.271066666E-1,-1.085469246E0
6.430849700E-2,-3.137049675E-1,8.404510021E-1,-1.246934891E0
6.930849700E-2,-3.149113655E-1,9.888653755E-1,-1.412901878E0
7.430849700E-2,-2.939648628E-1,1.008010864E0,-1.636901855E0
7.930849700E-2,-2.552409172E-1,9.680871964E-1,-1.876100540E0
8.430849700E-2,-2.469429970E-1,9.130883217E-1,-2.102350235E0
8.930849700E-2,-3.087201118E-1,8.019614220E-1,-2.184620857E0
9.430849700E-2,-4.016847610E-1,6.224026680E-1,-2.186519623E0
9.930849700E-2,-5.016689301E-1,3.871662617E-1,-2.038762093E0
1.043084970E-1,-5.746121407E-1,7.628297806E-2,-1.767388344E0
1.093084970E-1,-6.091065407E-1,-3.359079361E-1,-1.377365112E0
1.143084970E-1,-6.151523590E-1,-7.695972919E-1,-8.726596832E-1
1.193084970E-1,-5.820422173E-1,-1.240574360E0,-4.516534805E-1
1.243084970E-1,-5.474801064E-1,-1.694935560E0,-1.570978165E-1
1.293084970E-1,-5.073304176E-1,-2.039302826E0,1.853942871E-2
1.343084970E-1,-4.250030518E-1,-2.229930878E0,6.011009216E-2
1.393084970E-1,-3.214726448E-1,-2.287405968E0,-3.128337860E-2
1.443084970E-1,-1.710352898E-1,-2.232645750E0,-2.082166672E-1
1.493084970E-1,1.159715652E-2,-2.080390453E0,-4.437627792E-1
1.543084970E-1,2.208123207E-1,-1.838365793E0,-6.738986969E-1
1.593084970E-1,4.030370712E-1,-1.542709351E0,-9.309921265E-1
1.643084970E-1,5.528345108E-1,-1.240755916E0,-1.176412582E0
1.693084970E-1,6.262950897E-1,-9.524619579E-1,-1.402187347E0
1.743084970E-1,6.810293198E-1,-6.851189137E-1,-1.697019577E0
1.793084970E-1,6.813945770E-1,-4.523038864E-1,-1.965297699E0
1.843084970E-1,6.610622406E-1,-2.834246159E-1,-2.224203110E0
1.893084970E-1,6.629323959E-1,-1.025881767E-1,-2.426313400E0
1.943084970E-1,7.166056633E-1,4.241156578E-2,-2.556840897E0
1.993084970E-1,7.793478966E-1,1.364245415E-1,-2.656670094E0
2.043084970E-1,8.651280403E-1,1.520376205E-1,-2.713565350E0
2.093084970E-1,9.533677101E-1,1.001670361E-1,-2.723763943E0
2.143084970E-1,1.053705692E0,3.017020226E-2,-2.745040894E0
2.193084970E-1,1.146768570E0,-5.343866348E-2,-2.726866722E0
2.243084970E-1,1.232317924E0,-1.046166420E-1,-2.636971474E0
2.293084970E-1,1.312974930E0,-1.589686871E-1,-2.516751289E0
2.343084970E-1,1.382000685E0,-2.125945091E-1,-2.351802826E0
2.393084970E-1,1.452793121E0,-2.419614792E-1,-2.122324944E0
2.443084970E-1,1.500584841E0,-2.050790787E-1,-1.860840797E0
2.493084970E-1,1.510278702E0,-1.687848568E-1,-1.574913979E0
2.543084970E-1,1.496383905E0,-1.104578972E-1,-1.281282425E0
2.593084970E-1,1.459793091E0,-8.649659157E-2,-9.639835358E-1
2.643084970E-1,1.436668634E0,-1.224925518E-1,-6.872911453E-1
2.693084970E-1,1.436055660E0,-2.041778564E-1,-4.496431351E-1
2.743084970E-1,1.507883310E0,-3.252911568E-1,-3.036470413E-1
2.793084970E-1,1.584849596E0,-4.723815918E-1,-3.138513565E-1
2.843084970E-1,1.651804447E0,-6.276648045E-1,-4.198417664E-1
2.893084970E-1,1.677185297E0,-7.265877724E-1,-6.774339676E-1
2.943084970E-1,1.709768772E0,-7.753834724E-1,-9.526901245E-1
2.993084970E-1,1.723080158E0,-8.512744904E-1,-1.242968559E0
3.043084970E-1,1.722735643E0,-8.715422153E-1,-1.511600494E0
3.093084970E-1,1.695625782E0,-8.492481709E-1,-1.795315266E0
3.143084970E-1,1.669295311E0,-7.690041065E-1,-2.091945171E0
3.193084970E-1,1.653289318E0,-6.424150467E-1,-2.402835846E0
3.243084970E-1,1.667163372E0,-5.498278141E-1,-2.791611671E0
3.293084970E-1,1.627420187E0,-4.196705818E-1,-3.004323483E0
3.343084970E-1,1.627531767E0,-3.095643520E-1,-3.238229275E0
3.393084970E-1,1.657299757E0,-2.293834686E-1,-3.478622913E0
3.443084970E-1,1.693571806E0,-1.841776371E-1,-3.665529251E0
3.493084970E-1,1.706090689E0,-1.744387150E-1,-3.757506847E0
3.543084970E-1,1.680216789E0,-1.480278969E-1,-3.781622887E0
3.593084970E-1,1.652391195E0,-9.772014618E-2,-3.743376255E0
3.643084970E-1,1.611562967E0,-5.465626717E-2,-3.644862175E0
3.693084970E-1,1.530033350E0,2.409934998E-3,-3.471095562E0
3.743084970E-1,1.379603148E0,-2.583265305E-3,-3.204883575E0
3.793084970E-1,1.270590782E0,-5.073642731E-2,-2.925938129E0
3.843084970E-1,1.180809259E0,-1.233053207E-1,-2.697387218E0
3.893084970E-1,1.136057854E0,-2.293093204E-1,-2.535942078E0
3.943084970E-1,1.146518946E0,-3.298575878E-1,-2.494648933E0
3.993084970E-1,1.146550655E0,-4.030907154E-1,-2.507198334E0
4.043084970E-1,1.098386526E0,-4.415283203E-1,-2.541253090E0
4.093084970E-1,1.016020060E0,-4.739086628E-1,-2.537859917E0
4.143084970E-1,9.114658833E-1,-4.709422588E-1,-2.552666187E0
4.193084970E-1,8.416764736E-1,-4.427747726E-1,-2.565133572E0
4.243084970E-1,7.639131546E-1,-3.700182438E-1,-2.532567024E0
4.293084970E-1,6.734578609E-1,-2.481915951E-1,-2.444804192E0
4.343084970E-1,6.170151234E-1,-7.728576660E-2,-2.352777958E0
4.393084970E-1,5.836071968E-1,9.929537773E-2,-2.241451263E0
4.443084970E-1,5.687634945E-1,2.480537891E-1,-2.107532978E0
4.493084970E-1,4.967713356E-1,3.451917171E-1,-1.925587177E0
4.543084970E-1,3.527877331E-1,3.553013802E-1,-1.767926693E0
4.593084970E-1,1.557857990E-1,2.876443863E-1,-1.644605160E0
4.643084970E-1,-1.194593906E-1,1.757862568E-1,-1.561212063E0
4.693084970E-1,-4.082145691E-1,4.434299469E-2,-1.577701092E0
4.743084970E-1,-7.315914631E-1,-1.219906807E-1,-1.581359863E0
4.793084970E-1,-1.045345783E0,-3.164994717E-1,-1.492599964E0
4.843084970E-1,-1.255089045E0,-4.913048744E-1,-1.342647076E0
4.893084970E-1,-1.362738371E0,-5.988199711E-1,-1.177134991E0
4.943084970E-1,-1.369557619E0,-6.537903547E-1,-9.399695396E-1
4.993084970E-1,-1.296668768E0,-6.421080828E-1,-6.157264709E-1
5.043084970E-1,-1.180710077E0,-5.352475643E-1,-3.173294067E-1
5.093084970E-1,-1.021060228E0,-2.975716591E-1,-1.104354858E-2
5.143084970E-1,-8.626444340E-1,-1.389288902E-2,2.709302902E-1
5.193084970E-1,-7.109620571E-1,3.204808235E-1,5.137872696E-1
5.243084970E-1,-5.367343426E-1,6.306512356E-1,6.365594864E-1
5.293084970E-1,-3.714520931E-1,8.967494965E-1,7.022447586E-1
5.343084970E-1,-2.435123920E-1,1.105550051E0,7.817096710E-1
5.393084970E-1,-1.471760273E-1,1.256996393E0,8.519554138E-1
5.443084970E-1,-1.415767670E-1,1.322662592E0,9.944057465E-1
5.493084970E-1,-1.928052902E-1,1.251001596E0,1.155768394E0
5.543084970E-1,-2.431352139E-1,1.113756418E0,1.381003380E0
5.593084970E-1,-2.627263069E-1,8.795876503E-1,1.562161446E0
5.643084970E-1,-2.139444351E-1,5.732470751E-1,1.660321236E0
5.693084970E-1,-1.045925617E-1,2.270090580E-1,1.708688736E0
5.743084970E-1,-2.451157570E-2,-8.369219303E-2,1.754908562E0
5.793084970E-1,7.329344749E-2,-3.824857473E-1,1.778388977E0
5.843084970E-1,1.411110163E-1,-6.348512769E-1,1.836826324E0
5.893084970E-1,1.871448755E-1,-7.849648595E-1,1.948053360E0
5.943084970E-1,1.708205938E-1,-8.511220813E-1,2.162167549E0
5.993084970E-1,8.030331135E-2,-8.474147320E-1,2.490583420E0
6.043084970E-1,-4.047274590E-3,-8.105976582E-1,2.815207481E0
6.093084970E-1,-1.200083494E-1,-7.263832092E-1,3.143008232E0
6.143084970E-1,-2.505151033E-1,-6.391057372E-1,3.435433388E0
6.193084970E-1,-4.105234146E-1,-5.654865503E-1,3.759123802E0
6.243084970E-1,-5.635002851E-1,-4.998889863E-1,4.131056786E0
6.293084970E-1,-7.279073000E-1,-4.949346781E-1,4.687886238E0
6.343084970E-1,-8.439806700E-1,-5.249711275E-1,5.027423859E0
6.393084970E-1,-7.782410383E-1,-4.964074194E-1,4.804712296E0
6.443084970E-1,-5.981723070E-1,-4.413870573E-1,4.486734390E0
6.493084970E-1,-4.156219959E-1,-4.004457891E-1,4.247960091E0
6.543084970E-1,-2.529224157E-1,-3.433701694E-1,3.969218254E0
6.593084970E-1,-1.214323044E-1,-2.247695923E-1,3.570507050E0
6.643084970E-1,-2.668344975E-2,-7.150775939E-2,3.242738724E0
6.693084970E-1,6.162393093E-2,1.707568392E-2,3.145313263E0
6.743084970E-1,2.359098196E-1,-3.765113652E-2,3.164192200E0
6.793084970E-1,4.578565359E-1,-1.567609459E-1,3.053172112E0
6.843084970E-1,6.229795218E-1,-2.301667631E-1,2.707316399E0
6.893084970E-1,7.355318069E-1,-2.703409791E-1,2.260366440E0
6.943084970E-1,7.627044916E-1,-4.243827760E-1,1.960042953E0
6.993084970E-1,8.340169787E-1,-7.045480013E-1,1.758094788E0
7.043084970E-1,8.622832298E-1,-1.021029353E0,1.618532181E0
7.093084970E-1,8.906434774E-1,-1.317113519E0,1.476546288E0
7.143084970E-1,8.909543753E-1,-1.521391273E0,1.352510452E0
7.193084970E-1,8.324658871E-1,-1.712616920E0,1.271507263E0
7.243084970E-1,6.872422695E-1,-1.819435954E0,1.096084595E0
7.293084970E-1,4.976006746E-1,-1.937569737E0,7.254972458E-1
7.343084970E-1,3.636754751E-1,-2.025466681E0,1.764345169E-1
7.393084970E-1,2.455135584E-1,-2.078495979E0,-4.555187225E-1
7.443084970E-1,1.123597622E-1,-2.069711208E0,-9.772710800E-1
7.493084970E-1,-6.824731827E-3,-1.976845026E0,-1.372657776E0
7.543084970E-1,-8.435893059E-2,-1.809188843E0,-1.633034706E0
7.593084970E-1,-1.017620564E-1,-1.543136716E0,-1.806197166E0
7.643084970E-1,-5.404162407E-2,-1.217499256E0,-1.963194847E0
7.693084970E-1,4.562616348E-2,-8.225009441E-1,-2.139945984E0
7.743084970E-1,1.722373962E-1,-3.704943359E-1,-2.299360275E0
7.793084970E-1,2.485439777E-1,8.207553625E-2,-2.381095409E0
7.843084970E-1,2.953085899E-1,5.300715566E-1,-2.398652554E0
7.893084970E-1,3.391849995E-1,9.052110910E-1,-2.394485950E0
7.943084970E-1,4.097449780E-1,1.242545128E0,-2.397216797E0
7.993084970E-1,4.803924561E-1,1.501988769E0,-2.335387707E0
8.043084970E-1,5.559949875E-1,1.663749218E0,-2.227149487E0
8.093084970E-1,6.128013134E-1,1.726433635E0,-2.128603935E0
8.143084970E-1,7.171820402E-1,1.736076951E0,-2.115790844E0
8.193084970E-1,8.869378567E-1,1.662492275E0,-2.252026558E0
8.243084970E-1,1.054514408E0,1.510442615E0,-2.427401543E0
8.293084970E-1,1.116278410E0,1.305681586E0,-2.461950302E0
8.343084970E-1,1.118576169E0,1.130101800E0,-2.359878540E0
8.393084970E-1,1.062360048E0,9.384946823E-1,-2.160551548E0
8.443084970E-1,1.046405911E0,7.234353423E-1,-1.962889671E0
8.493084970E-1,1.062015653E0,5.256315470E-1,-1.928640366E0
8.543084970E-1,1.086599946E0,3.591994643E-1,-2.041581631E0
8.593084970E-1,1.109321237E0,2.253777087E-1,-2.154777050E0
8.643084970E-1,1.154739261E0,1.092844605E-1,-2.292168140E0
8.693084970E-1,1.223606706E0,8.164227009E-2,-2.443968296E0
8.743084970E-1,1.308559060E0,1.480279267E-1,-2.610624313E0
8.793084970E-1,1.360338807E0,2.539160252E-1,-2.743084908E0
8.843084970E-1,1.422986269E0,4.506500661E-1,-2.962512970E0
8.893084970E-1,1.441886067E0,6.581451893E-1,-3.196199417E0
8.943084970E-1,1.387768865E0,8.861446381E-1,-3.399837494E0
8.993084970E-1,1.268489718E0,1.074300647E0,-3.610967636E0
9.043084970E-1,1.157293200E0,1.205866098E0,-3.904425144E0
9.093084970E-1,9.551717043E-1,1.227632880E0,-4.131724834E0
9.143084970E-1,6.128423214E-1,1.228587508E0,-4.347505093E0
9.193084970E-1,2.569184303E-1,1.191960812E0,-4.484314442E0
9.243084970E-1,-8.784937859E-2,1.130913615E0,-4.521857262E0
9.293084970E-1,-3.429057598E-1,1.095124245E0,-4.519286156E0
9.343084970E-1,-4.096324444E-1,1.097027540E0,-4.411005020E0
9.393084970E-1,-3.060491085E-1,1.121051788E0,-4.216600895E0
9.443084970E-1,-1.166725159E-1,1.201786280E0,-3.916276455E0
9.493084970E-1,1.623747349E-1,1.311626315E0,-3.518786907E0
9.543084970E-1,4.922325611E-1,1.410203815E0,-3.014555931E0
9.593084970E-1,8.365345001E-1,1.520337105E0,-2.414339542E0
9.643084970E-1,1.168839812E0,1.613130569E0,-1.533374310E0
9.693084970E-1,1.472050190E0,1.627487659E0,-4.911575317E-1
9.743084970E-1,1.692238808E0,1.542062998E0,-4.722595215E-3
9.793084970E-1,1.794845343E0,1.423313141E0,1.706962585E-1
9.843084970E-1,1.775887966E0,1.279115558E0,5.939941406E-1
9.893084970E-1,1.618760347E0,1.195154667E0,1.004620552E0
9.943084970E-1,1.429265261E0,1.155062795E0,1.176392555E0
9.993084970E-1,1.201146483E0,1.130380154E0,1.139583588E0
1.004308497E0,9.656819105E-1,1.099764585E0,1.034798622E0
1.009308497E0,6.993777752E-1,1.030941129E0,9.351797104E-1
1.014308497E0,4.695075750E-1,9.335668087E-1,8.357486725E-1
1.019308497E0,3.260823488E-1,8.365126848E-1,6.357765198E-1
1.024308497E0,2.181274891E-1,7.743736506E-1,3.686342239E-1
1.029308497E0,1.788141727E-1,7.363437414E-1,7.536029816E-2
1.034308497E0,1.892435551E-1,7.779861689E-1,-2.243261337E-1
1.039308497E0,2.251105309E-1,8.839853406E-1,-5.519018173E-1
1.044308497E0,2.575576305E-1,9.687535167E-1,-8.749904633E-1
1.049308497E0,2.901093960E-1,1.007012486E0,-1.059206009E0
1.054308497E0,2.957532406E-1,9.920315742E-1,-1.197514534E0
1.059308497E0,3.223220110E-1,9.473254085E-1,-1.311925888E0
1.064308497E0,3.112661839E-1,8.843317628E-1,-1.327229500E0
1.069308497E0,3.132263422E-1,8.038670421E-1,-1.254104614E0
1.074308497E0,2.880852222E-1,7.068892121E-1,-1.129644394E0
1.079308497E0,2.524391413E-1,5.583187342E-1,-1.008955002E0
1.084308497E0,2.248216867E-1,3.207981586E-1,-9.207830429E-1
1.089308497E0,2.074449062E-1,-5.816459656E-3,-7.992382050E-1
1.094308497E0,1.850411892E-1,-3.057262897E-1,-6.877775192E-1
1.099308497E0,8.474135399E-2,-5.559772253E-1,-5.586709976E-1
1.104308497E0,-9.510326385E-2,-7.037737370E-1,-2.562007904E-1
1.109308497E0,-2.823910713E-1,-8.267965317E-1,2.381048203E-1
1.114308497E0,-4.230804443E-1,-8.911008835E-1,8.973684311E-1
1.119308497E0,-4.758057594E-1,-9.276370406E-1,1.669841766E0
1.124308497E0,-4.558675289E-1,-9.551984072E-1,2.479515076E0
1.129308497E0,-3.554081917E-1,-9.345213771E-1,3.221681595E0
1.134308497E0,-1.953322887E-1,-9.455287457E-1,3.850722313E0
1.139308497E0,1.415205002E-2,-9.703398943E-1,4.294054031E0
1.144308497E0,2.270616293E-1,-9.643474817E-1,4.479311943E0
1.149308497E0,4.061946869E-1,-9.292337894E-1,4.406239510E0
1.154308497E0,5.210446119E-1,-8.151543140E-1,4.108889580E0
1.159308497E0,5.405222178E-1,-5.794390440E-1,3.595049858E0
1.164308497E0,4.566280842E-1,-2.650026083E-1,2.962480545E0
1.169308497E0,3.106356859E-1,1.199196577E-1,2.312704086E0
1.174308497E0,1.443852186E-1,4.913048744E-1,1.604930878E0
1.179308497E0,-6.746292114E-2,8.644654751E-1,8.707866669E-1
1.184308497E0,-3.068385124E-1,1.222857594E0,1.750364304E-1
1.189308497E0,-5.265963078E-1,1.579412580E0,-4.299364090E-1
1.194308497E0,-7.112407684E-1,1.882714391E0,-9.042339325E-1
1.199308497E0,-9.107608795E-1,2.081526279E0,-1.244363785E0
1.204308497E0,-1.163075209E0,2.070771217E0,-1.373499870E0
1.209308497E0,-1.416815042E0,1.819153070E0,-1.268884659E0
1.214308497E0,-1.699450254E0,1.283780336E0,-8.103990555E-1
1.219308497E0,-1.886521101E0,4.786993265E-1,-3.452968597E-2
1.224308497E0,-1.885813951E0,-4.112008810E-1,9.868726730E-1
1.229308497E0,-1.688648224E0,-1.244516730E0,2.055022240E0
1.234308497E0,-1.346956730E0,-1.989390731E0,3.080330849E0
1.239308497E0,-9.036273956E-1,-2.662531614E0,4.021209717E0
1.244308497E0,-4.001734257E-1,-3.127392769E0,4.736592293E0
1.249308497E0,3.935372829E-2,-3.397737503E0,5.257209778E0
1.254308497E0,4.511175156E-1,-3.513487339E0,5.532602310E0
1.259308497E0,7.683756948E-1,-3.445737839E0,5.663514137E0
1.264308497E0,9.949386716E-1,-3.194132328E0,5.625774384E0
1.269308497E0,1.112141967E0,-2.737341881E0,5.453522682E0
1.274308497E0,1.166681051E0,-2.120015383E0,5.142911911E0
1.279308497E0,1.142344832E0,-1.437581301E0,4.594123840E0
1.284308497E0,1.077379704E0,-8.074449897E-1,3.768795967E0
1.289308497E0,1.020013809E0,-2.581030130E-1,2.815974236E0
1.294308497E0,9.229879379E-1,2.191538811E-1,1.859108925E0
1.299308497E0,7.672184110E-1,6.565208435E-1,9.813671112E-1
1.304308497E0,5.891561508E-1,1.132137060E0,9.268093109E-2
1.309308497E0,4.994605780E-1,1.566201687E0,-8.553085327E-1
1.314308497E0,5.218243599E-1,1.925762653E0,-1.705184937E0
1.319308497E0,6.305814981E-1,2.162838936E0,-2.402875900E0
1.324308497E0,6.741338968E-1,2.345998287E0,-2.818293095E0
1.329308497E0,6.540629864E-1,2.440935612E0,-2.956450939E0
1.334308497E0,5.385813713E-1,2.395820141E0,-2.835626602E0
1.339308497E0,3.743610382E-1,2.179989338E0,-2.516291142E0
1.344308497E0,1.169197559E-1,1.867296219E0,-2.133574486E0
1.349308497E0,-1.633615494E-1,1.459127188E0,-1.688489914E0
1.354308497E0,-4.700598717E-1,1.000455618E0,-1.159555435E0
1.359308497E0,-7.170319557E-1,4.562439919E-1,-4.791936874E-1
1.364308497E0,-9.070227146E-1,-1.102225780E-1,2.825651169E-1
1.369308497E0,-9.848668575E-1,-6.460804939E-1,9.562234879E-1
1.374308497E0,-9.560623169E-1,-1.104893327E0,1.447154045E0
1.379308497E0,-8.595020771E-1,-1.450249672E0,1.799985886E0
1.384308497E0,-6.626796722E-1,-1.721499801E0,2.032919884E0
1.389308497E0,-4.460897446E-1,-1.816840887E0,2.086432457E0
1.394308497E0,-2.290821075E-1,-1.707201362E0,1.888561249E0
1.399308497E0,-6.120610237E-2,-1.480295539E0,1.478945732E0
1.404308497E0,8.354187012E-2,-1.217552662E0,8.990268707E-1
1.409308497E0,2.119953632E-1,-9.415130615E-1,1.846532822E-1
1.414308497E0,3.569855690E-1,-6.284149885E-1,-6.166124344E-1
1.419308497E0,5.382091999E-1,-3.244727850E-1,-1.429250717E0
1.424308497E0,6.810667515E-1,1.266217232E-2,-2.229908943E0
1.429308497E0,7.797529697E-1,3.288011551E-1,-2.941709042E0
1.434308497E0,8.326613903E-1,6.140499115E-1,-3.533176899E0
1.439308497E0,8.981046677E-1,8.362751007E-1,-3.973922729E0
1.444308497E0,1.003196001E0,9.339091778E-1,-4.259311199E0
1.449308497E0,1.123898625E0,9.447445869E-1,-4.451508045E0
1.454308497E0,1.244935751E0,9.065499306E-1,-4.586332798E0
1.459308497E0,1.330910325E0,8.233406544E-1,-4.705173492E0
1.464308497E0,1.346177936E0,6.736547947E-1,-4.754560471E0
1.469308497E0,1.243799090E0,5.067853928E-1,-4.712614536E0
1.474308497E0,9.932913780E-1,3.269948959E-1,-4.433917046E0
1.479308497E0,6.416089535E-1,1.906411648E-1,-3.879271030E0
1.484308497E0,3.621168137E-1,1.433453560E-1,-3.378377438E0
1.489308497E0,2.376964092E-1,1.303107738E-1,-2.932440281E0
1.494308497E0,3.166995049E-1,1.687686443E-1,-2.424206257E0
1.499308497E0,4.781358242E-1,2.235126495E-1,-2.002439976E0
1.504308497E0,6.757004261E-1,3.075637817E-1,-1.771602154E0
1.509308497E0,8.699283600E-1,3.544495106E-1,-1.693240643E0
1.514308497E0,1.016320229E0,3.789200783E-1,-1.769225597E0
1.519308497E0,1.104809284E0,4.337306023E-1,-1.957218647E0
1.524308497E0,1.078834176E0,5.354771614E-1,-2.170666218E0
1.529308497E0,9.897034168E-1,6.179250479E-1,-2.344667912E0
1.534308497E0,8.461723328E-1,6.947191954E-1,-2.529903412E0
1.539308497E0,6.504874229E-1,7.334755659E-1,-2.683458328E0
1.544308497E0,4.292376041E-1,7.337820530E-1,-2.841737270E0
1.549308497E0,1.901762486E-1,7.084416151E-1,-2.969347000E0
1.554308497E0,-1.392555237E-2,6.332706213E-1,-3.008863449E0
1.559308497E0,-2.130658627E-1,5.405822992E-1,-2.950737000E0
1.564308497E0,-4.456076622E-1,4.352685213E-1,-2.825139046E0
1.569308497E0,-6.249034405E-1,3.268198967E-1,-2.672828197E0
1.574308497E0,-7.773778439E-1,2.112541199E-1,-2.509129047E0
1.579308497E0,-8.826441765E-1,1.232769489E-1,-2.250542164E0
1.584308497E0,-9.237413406E-1,1.077637672E-1,-1.853845119E0
1.589308497E0,-8.337974548E-1,1.476103067E-1,-1.365928650E0
1.594308497E0,-6.846625805E-1,2.277818918E-1,-8.034934998E-1
1.599308497E0,-4.512655735E-1,4.026513100E-1,-2.160892487E-1
1.604308497E0,-2.009632587E-1,5.910180807E-1,3.999404907E-1
1.609308497E0,1.214218140E-1,6.924523115E-1,8.650016785E-1
1.614308497E0,4.197595119E-1,7.600569725E-1,1.226523399E0
1.619308497E0,6.793618202E-1,7.871325016E-1,1.514762878E0
1.624308497E0,9.226319790E-1,8.230222464E-1,1.675982475E0
1.629308497E0,1.089392900E0,8.627331257E-1,1.772593498E0
1.634308497E0,1.133660555E0,8.533788919E-1,1.894526482E0
1.639308497E0,1.041700840E0,8.111724854E-1,2.002263069E0
1.644308497E0,7.990783453E-1,6.871006489E-1,2.036152840E0
1.649308497E0,4.385622740E-1,4.944347143E-1,2.103552818E0
1.654308497E0,-3.359997272E-2,2.816549540E-1,2.179103851E0
1.659308497E0,-5.186804533E-1,2.720808983E-2,2.225716591E0
1.664308497E0,-1.005799055E0,-2.422537804E-1,2.314133644E0
1.669308497E0,-1.395183325E0,-5.149913430E-1,2.465009689E0
1.674308497E0,-1.586484671E0,-6.588622332E-1,2.717885971E0
1.679308497E0,-1.603988290E0,-7.144300938E-1,3.008924484E0
1.684308497E0,-1.456638575E0,-7.031691670E-1,3.255084991E0
1.689308497E0,-1.233319402E0,-6.795088649E-1,3.400566101E0
1.694308497E0,-9.411554337E-1,-6.443786621E-1,3.417453766E0
1.699308497E0,-6.327707767E-1,-6.082111597E-1,3.348749161E0
1.704308497E0,-3.630101681E-1,-5.543616414E-1,3.270383835E0
1.709308497E0,-1.272721291E-1,-4.881193042E-1,3.212282181E0
1.714308497E0,6.596422195E-2,-3.681111336E-1,3.191561699E0
1.719308497E0,1.764979362E-1,-1.809892654E-1,3.097839355E0
1.724308497E0,2.676336169E-1,-2.421915531E-2,2.872632027E0
1.729308497E0,3.267181516E-1,9.192645550E-2,2.582746506E0
1.734308497E0,3.504109383E-1,1.327441931E-1,2.273641586E0
1.739308497E0,3.464959860E-1,1.035004854E-1,1.948328972E0
1.744308497E0,3.182649612E-1,1.018512249E-2,1.589219093E0
1.749308497E0,2.846827507E-1,-1.110212803E-1,1.291107178E0
1.754308497E0,2.115135193E-1,-2.882819176E-1,1.058740616E0
1.759308497E0,1.325502396E-1,-5.071085691E-1,1.002495766E0
1.764308497E0,5.412709713E-2,-7.158778906E-1,1.105441093E0
1.769308497E0,-2.140831947E-2,-9.199569225E-1,1.318862915E0
1.774308497E0,-9.259366989E-2,-1.147283196E0,1.656349182E0
1.779308497E0,-1.193333864E-1,-1.392307997E0,2.052527428E0
1.784308497E0,-1.284880638E-1,-1.602830768E0,2.380707741E0
1.789308497E0,-1.083060503E-1,-1.745888591E0,2.545053482E0
1.794308497E0,-7.555627823E-2,-1.856289268E0,2.576713562E0
1.799308497E0,-2.970349789E-2,-1.931786060E0,2.525283813E0
1.804308497E0,1.388669014E-3,-1.978125095E0,2.415737152E0
1.809308497E0,9.473562241E-3,-2.001016617E0,2.224250793E0
1.814308497E0,5.083882809E-2,-1.977086425E0,1.972766876E0
1.819308497E0,8.858489990E-2,-1.915370584E0,1.706480980E0
1.824308497E0,1.259388924E-1,-1.830550909E0,1.428085327E0
1.829308497E0,1.324357986E-1,-1.707546830E0,1.128892899E0
1.834308497E0,1.426756382E-1,-1.529329062E0,8.587274551E-1
1.839308497E0,1.675099134E-1,-1.325770140E0,5.575952530E-1
1.844308497E0,1.811449528E-1,-1.101274848E0,2.215824127E-1
1.849308497E0,1.497921944E-1,-8.585329056E-1,-6.612682343E-2
1.854308497E0,9.568893909E-2,-5.840567350E-1,-2.920618057E-1
1.859308497E0,8.312487602E-2,-3.862171173E-1,-4.859304428E-1
1.864308497E0,8.427155018E-2,-2.498661727E-1,-7.284746170E-1
1.869308497E0,1.146023273E-1,-1.960414499E-1,-9.422655106E-1
1.874308497E0,1.872267723E-1,-1.881060004E-1,-1.079356194E0
1.879308497E0,2.930402756E-1,-1.960636228E-1,-1.163108826E0
1.884308497E0,4.350192547E-1,-2.025714517E-1,-1.173910141E0
1.889308497E0,6.233094931E-1,-2.481559962E-1,-1.107952118E0
1.894308497E0,7.912226915E-1,-3.421726227E-1,-1.053297043E0
1.899308497E0,1.030392885E0,-4.355250895E-1,-9.796113968E-1
1.904308497E0,1.374825478E0,-4.433259368E-1,-8.442049026E-1
1.909308497E0,1.676476717E0,-4.988977313E-1,-6.774845123E-1
1.914308497E0,1.921089768E0,-5.765561461E-1,-4.571123123E-1
1.919308497E0,2.067664146E0,-6.849001050E-1,-2.817735672E-1
1.924308497E0,2.111218691E0,-7.950856090E-1,-1.562442780E-1
1.929308497E0,2.061548948E0,-8.600578904E-1,-1.300039291E-1
1.934308497E0,1.985805988E0,-8.562860489E-1,-1.453571320E-1
1.939308497E0,1.865350008E0,-7.846610546E-1,-1.484794617E-1
1.944308497E0,1.687505960E0,-6.700466871E-1,-1.798858643E-1
1.949308497E0,1.420608759E0,-4.993107319E-1,-2.531785965E-1
1.954308497E0,1.071100473E0,-3.227980137E-1,-3.840751648E-1
1.959308497E0,7.084012032E-1,-1.806719303E-1,-6.150674820E-1
1.964308497E0,3.253343105E-1,-1.130762398E-1,-1.028017044E0
1.969308497E0,1.368784904E-2,-9.513543546E-2,-1.533478737E0
1.974308497E0,-2.763171196E-1,-1.798250675E-1,-2.212616444E0
1.979308497E0,-5.574300289E-1,-2.777941823E-1,-2.876830101E0
1.984308497E0,-8.047261238E-1,-3.488030732E-1,-3.436462879E0
1.989308497E0,-9.794044495E-1,-3.565267324E-1,-3.833827019E0
1.994308497E0,-1.093263865E0,-2.948547304E-1,-4.132819653E0
1.999308497E0,-1.151983500E0,-1.913571954E-1,-4.359543324E0
2.004308497E0,-1.089718580E0,-6.906235218E-2,-4.486866951E0
2.009308497E0,-9.323534966E-1,1.213350892E-1,-4.470168591E0
2.014308497E0,-7.263529301E-1,3.463616371E-1,-4.275279522E0
2.019308497E0,-4.777321815E-1,5.569117665E-1,-3.937526226E0
2.024308497E0,-1.992373466E-1,7.386816740E-1,-3.528794289E0
2.029308497E0,1.149733067E-1,8.994258642E-1,-3.050261497E0
2.034308497E0,4.265494347E-1,1.023324013E0,-2.521249294E0
2.039308497E0,5.827748775E-1,1.133046031E0,-2.017910004E0
2.044308497E0,5.777852535E-1,1.257188797E0,-1.607591629E0
2.049308497E0,4.586555958E-1,1.394287348E0,-1.264871597E0
2.054308497E0,2.931830883E-1,1.549775243E0,-1.075581551E0
2.059308497E0,1.068732738E-1,1.669654131E0,-9.529857635E-1
2.064308497E0,-5.648922920E-2,1.748466134E0,-8.818244934E-1
2.069308497E0,-1.595096588E-1,1.752158165E0,-8.359279633E-1
2.074308497E0,-2.179434299E-1,1.733294249E0,-7.384872437E-1
2.079308497E0,-1.794240475E-1,1.745626330E0,-5.991039276E-1
2.084308497E0,-1.597993374E-1,1.699118376E0,-3.847894669E-1
2.089308497E0,-9.441637993E-2,1.605032802E0,-1.648893356E-1
2.094308497E0,1.142048836E-2,1.388828158E0,-2.725601196E-2
2.099308497E0,1.269955635E-1,1.066093445E0,-8.613681793E-2
2.104308497E0,2.213346958E-1,7.505815029E-1,-2.641639709E-1
2.109308497E0,2.529473305E-1,5.226519108E-1,-5.462112427E-1
2.114308497E0,1.852800846E-1,3.958506584E-1,-8.158130646E-1
2.119308497E0,5.944705009E-2,3.985807896E-1,-1.098005295E0
2.124308497E0,-7.536149025E-2,4.605385065E-1,-1.219861031E0
2.129308497E0,-1.952819824E-1,5.378865004E-1,-1.223928928E0
2.134308497E0,-2.657487392E-1,6.239601374E-1,-1.166676521E0
2.139308497E0,-3.043501377E-1,6.828751564E-1,-1.060315609E0
2.144308497E0,-3.316853046E-1,7.065992355E-1,-9.149179459E-1
2.149308497E0,-3.356475830E-1,6.767785549E-1,-8.040580750E-1
2.154308497E0,-3.252298832E-1,6.387009621E-1,-6.642818451E-1
2.159308497E0,-2.890715599E-1,6.047403812E-1,-5.453243256E-1
2.164308497E0,-2.031526566E-1,6.150108576E-1,-4.481878281E-1
2.169308497E0,-7.279658318E-2,7.049077749E-1,-3.180742264E-1
2.174308497E0,1.201739311E-1,8.795403242E-1,-2.100496292E-1
2.179308497E0,3.593256474E-1,1.060957432E0,-7.970046997E-2
2.184308497E0,6.313452721E-1,1.248681784E0,2.773380280E-2
2.189308497E0,8.436660767E-1,1.396852016E0,1.489086151E-1
2.194308497E0,9.549720287E-1,1.417204380E0,3.211269379E-1
2.199308497E0,9.510540962E-1,1.244485140E0,4.884357452E-1
2.204308497E0,8.101508617E-1,9.132144451E-1,5.928926468E-1
2.209308497E0,5.912125111E-1,5.269107819E-1,6.468038559E-1
2.214308497E0,2.655606270E-1,1.628768444E-1,5.930185318E-1
2.219308497E0,-1.089024544E-1,-1.532762051E-1,4.461393356E-1
2.224308497E0,-4.403114319E-1,-3.324906826E-1,3.400506973E-1
2.229308497E0,-6.786537170E-1,-4.140710831E-1,2.487115860E-1
2.234308497E0,-8.274207115E-1,-3.872272968E-1,2.979164124E-1
2.239308497E0,-8.750638962E-1,-2.481837273E-1,4.230327606E-1
2.244308497E0,-8.665804863E-1,4.280304909E-2,6.187419891E-1
2.249308497E0,-8.415102959E-1,4.397292137E-1,8.648462296E-1
2.254308497E0,-8.221690655E-1,8.710112572E-1,1.113798141E0
2.259308497E0,-8.195936680E-1,1.322229624E0,1.424689293E0
2.264308497E0,-8.645861149E-1,1.726129532E0,1.837565422E0
2.269308497E0,-4.173343182E-1,3.372298241E0,2.475224495E0
2.274308497E0,3.831090927E-1,5.361867905E0,3.128179550E0
2.279308497E0,-2.429249287E-1,2.541048288E0,3.536524773E0
2.284308497E0,1.430982828E0,2.734446764E0,5.792045593E0
2.289308497E0,1.617028475E0,1.994245768E0,8.945690155E0
2.294308497E0,-9.050252438E-1,8.840024471E-1,8.759491920E0
2.299308497E0,-1.789695024E0,-1.056894183E0,7.883408546E0
2.304308497E0,-2.240024328E0,-2.363313675E0,6.829400063E0
2.309308497E0,-3.081725836E0,-3.032535791E0,5.484201431E0
2.314308497E0,-3.605464458E0,-3.394501686E0,4.405002594E0
2.319308497E0,-3.785067558E0,-3.928619623E0,3.959583282E0
2.324308497E0,-3.606888533E0,-4.435464859E0,3.767550468E0
2.329308497E0,-3.140609503E0,-4.367664814E0,3.665342331E0
2.334308497E0,-2.653013706E0,-4.055771828E0,3.794420242E0
2.339308497E0,-2.326502800E0,-3.463011265E0,4.237396240E0
2.344308497E0,-2.021356583E0,-2.850208044E0,4.510624886E0
2.349308497E0,-1.564090014E0,-1.830169439E0,4.202414513E0
2.354308497E0,-8.430793285E-1,-3.260965347E-1,3.308444023E0
2.359308497E0,-1.393935680E-1,9.192743301E-1,2.050705910E0
2.364308497E0,6.029465199E-1,1.868674040E0,3.848390579E-1
2.369308497E0,1.905645013E0,3.368532419E0,-2.862246990E0
2.374308497E0,2.892719507E0,4.363826752E0,-5.606612206E0
2.379308497E0,2.812653542E0,4.249335289E0,-5.682848930E0
2.384308497E0,2.360861301E0,3.200902462E0,-4.738190174E0
2.389308497E0,1.982769012E0,2.115903854E0,-2.987420559E0
2.394308497E0,1.462049246E0,1.203742504E0,-1.538561344E0
2.399308497E0,9.208431244E-1,5.185422897E-1,-7.114300728E-1
2.404308497E0,4.844951630E-1,-3.664445877E-2,-4.447460175E-1
2.409308497E0,1.608197689E-1,-3.202619553E-1,-1.934814453E-1
2.414308497E0,-2.361898422E-1,-5.752742290E-1,2.309770584E-1
2.419308497E0,-6.732070446E-1,-8.080389500E-1,6.352882385E-1
2.424308497E0,-1.267062902E0,-1.034965515E0,9.975700378E-1
2.429308497E0,-1.907928467E0,-1.321303368E0,1.362865448E0
2.434308497E0,-2.313222885E0,-1.557719231E0,1.698294640E0
2.439308497E0,-2.443356752E0,-1.547909737E0,1.837657928E0
2.444308497E0,-2.430472851E0,-1.338434696E0,1.669244766E0
2.449308497E0,-2.215168476E0,-1.059871912E0,1.360978127E0
2.454308497E0,-1.998856783E0,-8.234632015E-1,9.749813080E-1
2.459308497E0,-1.849801779E0,-6.450104713E-1,5.363788605E-1
2.464308497E0,-1.925746202E0,-6.402411461E-1,-6.293487549E-2
2.469308497E0,-1.893239021E0,-6.579060555E-1,-8.256921768E-1
2.474308497E0,-1.434356451E0,-6.374716759E-1,-1.420910358E0
2.479308497E0,-7.987046242E-1,-5.023508072E-1,-1.892998219E0
2.484308497E0,-9.118723869E-2,-4.542918205E-1,-2.229428768E0
2.489308497E0,7.414565086E-1,-3.322372437E-1,-2.476404190E0
2.494308497E0,1.515045643E0,-2.852015495E-1,-2.436631203E0
2.499308497E0,2.122970581E0,-3.381090164E-1,-2.022671223E0
2.504308497E0,2.517033100E0,-4.885520935E-1,-1.453885078E0
2.509308497E0,2.682693720E0,-7.019500732E-1,-8.103427887E-1
2.514308497E0,2.431209564E0,-1.070179224E0,-4.352989197E-1
2.519308497E0,1.945392013E0,-1.464251757E0,-5.713510513E-1
2.524308497E0,1.711679339E0,-1.701675892E0,-5.882492065E-1
2.529308497E0,1.598539114E0,-1.758111000E0,-7.482037544E-1
2.534308497E0,1.433914423E0,-1.744037151E0,-1.103167534E0
2.539308497E0,1.210177898E0,-1.690013885E0,-1.656212330E0
2.544308497E0,9.932463169E-1,-1.637924194E0,-2.122239590E0
2.549308497E0,7.897677422E-1,-1.551911116E0,-2.511750221E0
2.554308497E0,5.582022667E-1,-1.431740761E0,-2.704641342E0
2.559308497E0,5.715343952E-1,-1.306961536E0,-2.741780281E0
2.564308497E0,7.707536221E-1,-1.135669231E0,-2.569149971E0
2.569308497E0,1.066916704E0,-1.044840813E0,-2.337068558E0
2.574308497E0,1.408137798E0,-1.021837234E0,-2.083461761E0
2.579308497E0,1.820121050E0,-1.034506321E0,-1.700500488E0
2.584308497E0,2.273116827E0,-1.178510666E0,-1.383995056E0
2.589308497E0,2.679952860E0,-1.286622047E0,-1.075382710E0
2.594308497E0,3.057409048E0,-1.390094757E0,-1.057408810E0
2.599308497E0,3.301909208E0,-1.479849815E0,-9.302244186E-1
2.604308497E0,3.296658278E0,-1.636820793E0,-9.435839653E-1
2.609308497E0,3.175915480E0,-1.764183998E0,-9.520168304E-1
2.614308497E0,2.974803686E0,-1.926370621E0,-9.806661606E-1
2.619308497E0,2.695546389E0,-2.193714619E0,-7.455525398E-1
2.624308497E0,2.513766527E0,-2.293175220E0,-6.415543556E-1
2.629308497E0,2.134556770E0,-2.288113117E0,-6.169700623E-1
2.634308497E0,1.691473246E0,-2.189059258E0,-2.451701164E-1
2.639308497E0,1.178661108E0,-2.223943710E0,1.498632431E-1
2.644308497E0,7.042899132E-1,-2.201202393E0,3.895735741E-1
2.649308497E0,2.614259720E-1,-1.990593910E0,2.495574951E-1
2.654308497E0,-1.797816753E-1,-1.632390499E0,-6.881141663E-2
2.659308497E0,-5.704784393E-1,-1.212860107E0,-3.396110535E-1
2.664308497E0,-9.835369587E-1,-7.888674736E-1,-3.289265633E-1
2.669308497E0,-1.060991764E0,2.611327171E-1,-4.066019058E-1
2.674308497E0,-1.155734777E0,1.194850922E0,-1.047844410E0
2.679308497E0,-1.006451368E0,1.425923347E0,-6.010394096E-1
2.684308497E0,-6.625843048E-1,1.641973972E0,-2.454533577E-1
2.689308497E0,-2.612969875E-1,1.720613003E0,7.794094086E-2
2.694308497E0,2.668762207E-1,1.672795773E0,3.917670250E-1
2.699308497E0,8.125844002E-1,1.435928822E0,4.287085533E-1
2.704308497E0,1.056018949E0,1.049413681E0,-6.793642044E-2
2.709308497E0,1.348165274E0,8.030548096E-1,-2.919411659E-1
2.714308497E0,1.478772044E0,6.057920456E-1,-3.858051300E-1
2.719308497E0,1.505593181E0,5.266160965E-1,-3.631329536E-1
2.724308497E0,1.575083852E0,4.858369827E-1,-2.076616287E-1
2.729308497E0,1.604259133E0,5.549402237E-1,-1.433482170E-1
2.734308497E0,1.697898984E0,7.528972626E-1,-2.358403206E-1
2.739308497E0,1.607627392E0,1.003982067E0,-2.785725594E-1
2.744308497E0,1.184701324E0,1.108241081E0,-2.397646904E-1
2.749308497E0,5.911995173E-1,1.150896072E0,1.565971375E-1
2.754308497E0,-5.809307098E-3,1.384526253E0,5.011992455E-1
2.759308497E0,-5.301747322E-1,1.740071297E0,5.028486252E-1
2.764308497E0,-9.791438580E-1,2.043808937E0,4.204668999E-1
2.769308497E0,-1.141426563E0,2.548398972E0,8.632197380E-1
2.774308497E0,-3.435533047E-1,3.261415482E0,2.194231033E0
2.779308497E0,3.468728065E-2,4.034607887E0,1.341193676E0
2.784308497E0,-4.454088211E-2,4.332729340E0,1.176665306E0
2.789308497E0,-7.807397842E-2,4.390556335E0,1.017607212E0
2.794308497E0,5.449330807E-2,4.310712814E0,5.900120735E-1
2.799308497E0,2.871865034E-1,4.282048225E0,3.204016685E-1
2.804308497E0,4.878066778E-1,4.296230316E0,6.033411026E-1
2.809308497E0,6.266157627E-1,4.277942657E0,1.191967010E0
2.814308497E0,4.214134216E-1,4.173903465E0,1.624500275E0
2.819308497E0,-2.035950422E-1,4.224571228E0,2.429900169E0
2.824308497E0,-8.850796223E-1,4.283278465E0,3.074023724E0
2.829308497E0,-1.462325573E0,4.114255905E0,3.368613243E0
2.834308497E0,-2.030530691E0,3.440604210E0,3.342833519E0
2.839308497E0,-2.433122635E0,2.665320396E0,3.571452618E0
2.844308497E0,-2.709006310E0,2.143134117E0,3.606614590E0
2.849308497E0,-2.623712063E0,2.591469765E0,3.776714087E0
2.854308497E0,-2.482540607E0,3.047401428E0,4.086978912E0
2.859308497E0,-2.503944397E0,2.685437202E0,3.861891747E0
2.864308497E0,-2.540879726E0,2.309513092E0,2.796718836E0
2.869308497E0,-2.785189152E0,1.425788879E0,1.764384985E0
2.874308497E0,-2.947095394E0,4.737586975E-1,1.265974522E0
2.879308497E0,-2.743164539E0,2.300224304E-1,1.494360447E0
2.884308497E0,-2.311637402E0,-2.177248001E-1,1.261407614E0
2.889308497E0,-1.783422947E0,-3.931646347E-1,1.081518173E0
2.894308497E0,-1.192930698E0,-1.023550987E0,1.014529705E0
2.899308497E0,-6.266937852E-1,-1.702003002E0,6.537516117E-1
2.904308497E0,-1.692461967E-1,-2.226791859E0,3.734354973E-1
2.909308497E0,1.890069842E-1,-2.693048000E0,5.219151974E-1
2.914308497E0,6.110043526E-1,-2.762051582E0,6.177954674E-1
2.919308497E0,9.238163233E-1,-2.887064934E0,8.280937672E-1
2.924308497E0,9.661592245E-1,-3.156428814E0,6.854305267E-1
2.929308497E0,1.023140430E0,-3.059731483E0,5.589232445E-1
2.934308497E0,9.499726892E-1,-2.970037937E0,6.611230373E-1
2.939308497E0,1.002681136E0,-2.413203239E0,6.329278946E-1
2.944308497E0,1.100244522E0,-1.687775135E0,6.487081051E-1
2.949308497E0,1.038389444E0,-1.623011112E0,8.313710690E-1
2.954308497E0,1.188787937E0,-1.286808014E0,1.156839848E0
2.959308497E0,1.175773859E0,-1.183968544E0,1.014602423E0
2.964308497E0,1.002540112E0,-9.295110703E-1,-1.918821335E-1
2.969308497E0,8.011272550E-1,-1.483303070E0,6.104066372E-1
2.974308497E0,1.339116096E0,-2.627792358E0,-2.369503975E-1
2.979308497E0,2.202303886E0,-2.356895447E0,-8.926544189E-1
2.984308497E0,2.705826283E0,-1.670978069E0,-7.163405418E-2
2.989308497E0,2.631723642E0,-2.200263023E0,-5.239081383E-1
2.994308497E0,2.773770332E0,-2.230282307E0,-1.142344832E0
2.999308497E0,2.988088846E0,-1.711226463E0,-1.885841846E0
3.004308497E0,2.953443527E0,-1.315428734E0,-2.034060955E0
3.009308497E0,2.865046263E0,-9.753961563E-1,-1.997741938E0
3.014308497E0,2.591195107E0,-7.192354202E-1,-1.797954082E0
3.019308497E0,2.247799873E0,-4.671945572E-1,-1.758200169E0
3.024308497E0,1.891942024E0,-2.151994705E-1,-1.718067288E0
3.029308497E0,1.475376725E0,-3.408327103E-1,-1.598344088E0
3.034308497E0,1.219186783E0,-5.163154602E-1,-1.086580753E0
3.039308497E0,1.017810583E0,-9.000606537E-1,-5.744239092E-1
3.044308497E0,8.171044588E-1,-1.277182579E0,-2.555532455E-1
3.049308497E0,5.425200462E-1,-1.557578087E0,5.085105896E-1
3.054308497E0,1.712511778E-1,-2.234856129E0,8.160963058E-1
3.059308497E0,-8.274063468E-3,-2.783692837E0,5.775842667E-1
3.064308497E0,1.922526211E-1,-2.763914108E0,3.225367069E-1
3.069308497E0,3.041316867E-1,-2.588967800E0,-7.638812065E-2
3.074308497E0,2.036871314E-1,-2.399134636E0,-1.789472103E-1
3.079308497E0,-6.215518713E-2,-2.392359734E0,2.342939377E-3
3.084308497E0,-2.898289859E-1,-2.409418106E0,1.742353439E-1
3.089308497E0,-4.185378850E-1,-2.290096283E0,1.884293556E-1
3.094308497E0,-5.798459649E-1,-2.380117893E0,4.067394733E-1
3.099308497E0,-7.901476622E-1,-2.664696693E0,7.740590572E-1
3.104308497E0,-8.797363043E-1,-2.729320049E0,1.279221535E0
3.109308497E0,-8.883905411E-1,-2.711511612E0,1.770220995E0
3.114308497E0,-8.301126957E-1,-2.853424549E0,1.924798250E0
3.119308497E0,-6.639131308E-1,-2.982460499E0,1.829740524E0
3.124308497E0,-3.686354458E-1,-2.888352871E0,1.633515835E0
3.129308497E0,-1.557887197E-1,-2.776845932E0,1.400791168E0
3.134308497E0,2.381062508E-2,-2.615605354E0,1.100921631E0
3.139308497E0,6.308473647E-2,-2.374307632E0,8.725557327E-1
3.144308497E0,1.710918993E-1,-2.122366905E0,5.793879032E-1
3.149308497E0,1.607088447E-1,-1.949556828E0,1.727426052E-1
3.154308497E0,8.893437684E-2,-1.737390995E0,-1.149294376E-1
3.159308497E0,-8.816719055E-3,-1.604353905E0,-2.928993702E-1
3.164308497E0,-7.477724552E-2,-1.523930550E0,-4.659929276E-1
3.169308497E0,-1.934882402E-1,-1.654829979E0,-6.386544704E-1
3.174308497E0,-2.142013907E-1,-1.776206493E0,-8.426829576E-1
3.179308497E0,-2.556679845E-1,-1.853265762E0,-7.009677887E-1
3.184308497E0,-3.852477968E-1,-2.019073963E0,-5.263351202E-1
3.189308497E0,-5.536444187E-1,-2.254275799E0,-3.362500668E-1
3.194308497E0,-5.703130960E-1,-2.471743584E0,-2.267596722E-1
3.199308497E0,-4.377962053E-1,-2.624941826E0,-1.554107666E-1
3.204308497E0,-2.386296690E-1,-2.624423027E0,-7.156312466E-2
3.209308497E0,1.317597833E-2,-2.543581963E0,9.314799309E-2
3.214308497E0,2.671331465E-1,-2.418854237E0,3.062479496E-1
3.219308497E0,8.560825586E-1,-2.254107952E0,3.626415730E-1
3.224308497E0,1.133447051E0,-2.089428425E0,5.815898180E-1
3.229308497E0,1.275100708E0,-1.909327984E0,9.445619583E-1
3.234308497E0,1.603846073E0,-1.644066811E0,1.265593648E0
3.239308497E0,1.396342039E0,-1.447154999E0,1.368640661E0
3.244308497E0,1.459694386E0,-1.190952301E0,1.299115896E0
3.249308497E0,1.544400215E0,-9.186668396E-1,1.287013292E0
3.254308497E0,1.596436739E0,-8.566341400E-1,6.787451506E-1
3.259308497E0,1.641145468E0,-7.273273468E-1,1.012774706E-1
3.264308497E0,1.783934355E0,-5.980262756E-1,-1.258075237E-1
3.269308497E0,1.703601122E0,-7.406024933E-1,-2.618427277E-1
3.274308497E0,1.494926572E0,-1.077927589E0,-5.947561860E-1
3.279308497E0,1.475506306E0,-1.279191017E0,-7.810156941E-1
3.284308497E0,1.544656515E0,-1.396902084E0,-1.015277624E0
3.289308497E0,1.597861171E0,-1.417580605E0,-8.688707352E-1
3.294308497E0,1.737018824E0,-1.345472336E0,-1.048647165E0
3.299308497E0,1.932012320E0,-1.009558678E0,-1.378986120E0
3.304308497E0,2.309097052E0,-4.269323349E-1,-1.935623646E0
3.309308497E0,2.755079269E0,7.517433167E-2,-2.601209164E0
3.314308497E0,2.980509520E0,4.109859467E-1,-2.804719925E0
3.319308497E0,2.726372480E0,2.769594193E-1,-2.765563965E0
3.324308497E0,2.884827614E0,3.669948578E-1,-2.764024258E0
3.329308497E0,2.892370701E0,5.959653854E-1,-2.306926250E0
3.334308497E0,2.940607071E0,8.630113602E-1,-1.617623925E0
3.339308497E0,3.432696819E0,1.377580643E0,-8.288447857E-1
3.344308497E0,4.326965809E0,2.158418655E0,3.143550158E-1
3.349308497E0,5.363235474E0,2.957283020E0,1.416345835E0
3.354308497E0,6.118443966E0,3.488088608E0,2.276722670E0
3.359308497E0,6.168430328E0,3.561164856E0,2.566981316E0
3.364308497E0,5.620962620E0,3.434567451E0,2.279464245E0
3.369308497E0,4.760738373E0,3.335429192E0,1.842286348E0
3.374308497E0,3.796504021E0,3.204005241E0,1.516072154E0
3.379308497E0,2.814257622E0,2.967026711E0,1.281551838E0
3.384308497E0,1.905141950E0,2.693314552E0,1.049502015E0
3.389308497E0,1.139798045E0,2.457193375E0,7.976312637E-1
3.394308497E0,3.815779686E-1,2.202614784E0,2.918772697E-1
3.399308497E0,-6.072251201E-1,1.960668564E0,-3.850039840E-1
3.404308497E0,-1.780689597E0,1.721725464E0,-1.029558539E0
3.409308497E0,-2.886487484E0,1.499121666E0,-1.643926859E0
3.414308497E0,-3.790777683E0,1.245998383E0,-2.196217537E0
3.419308497E0,-4.567090511E0,9.428329468E-1,-2.648178101E0
3.424308497E0,-5.136187553E0,6.536340714E-1,-2.945594788E0
3.429308497E0,-5.427386284E0,3.945293427E-1,-3.128995895E0
3.434308497E0,-5.369095325E0,3.031110764E-1,-3.000262737E0
3.439308497E0,-5.121289730E0,3.196926117E-1,-2.356770754E0
3.444308497E0,-4.742931366E0,3.574018478E-1,-1.609761000E0
3.449308497E0,-4.197682381E0,4.073781967E-1,-9.827320576E-1
3.454308497E0,-3.569357634E0,4.645986557E-1,-5.372102261E-1
3.459308497E0,-2.877345324E0,5.054636002E-1,-2.408605069E-1
3.464308497E0,-2.163674593E0,5.278806686E-1,-2.772390842E-3
3.469308497E0,-1.467370391E0,5.458984375E-1,5.597674847E-2
3.474308497E0,-7.420503497E-1,5.816688538E-1,-1.603931189E-3
3.479308497E0,-1.416800022E-1,5.262775421E-1,-1.800376177E-1
3.484308497E0,3.192889690E-1,4.444580078E-1,-3.727786541E-1
3.489308497E0,6.499762535E-1,3.866071701E-1,-5.745650530E-1
3.494308497E0,8.411939144E-1,3.390808105E-1,-6.902625561E-1
3.499308497E0,9.003595114E-1,3.436918259E-1,-7.048331499E-1
3.504308497E0,8.636530638E-1,3.480501175E-1,-7.574016452E-1
3.509308497E0,7.520180941E-1,4.435749054E-1,-8.971412182E-1
3.514308497E0,5.981819630E-1,6.069402695E-1,-9.192703962E-1
3.519308497E0,4.615398645E-1,7.974424362E-1,-8.687472343E-1
3.524308497E0,3.197424412E-1,9.185762405E-1,-7.239671946E-1
3.529308497E0,2.323559523E-1,1.009572983E0,-5.262706876E-1
3.534308497E0,2.405200005E-1,1.075362206E0,-2.481421828E-1
3.539308497E0,1.261835098E-1,9.550943375E-1,3.087460995E-3
3.544308497E0,-1.695445776E-1,7.984867096E-1,2.366745472E-1
3.549308497E0,-5.730296373E-1,7.021656036E-1,3.382787704E-1
3.554308497E0,-8.755275011E-1,5.142107010E-1,2.268310189E-1
3.559308497E0,-1.054248810E0,2.320518494E-1,1.680749059E-1
3.564308497E0,-1.103147030E0,-6.932544708E-2,3.061482906E-1
3.569308497E0,-9.815202951E-1,-3.459157944E-1,5.680583119E-1
3.574308497E0,-8.245235682E-1,-5.974750519E-1,8.615940213E-1
3.579308497E0,-5.789463520E-1,-8.216209412E-1,1.081083775E0
3.584308497E0,-3.513714075E-1,-1.106170654E0,1.076768637E0
3.589308497E0,-1.201393604E-1,-1.352811813E0,8.924906254E-1
3.594308497E0,7.100820541E-2,-1.596211433E0,6.913039088E-1
3.599308497E0,2.327530384E-1,-1.848047733E0,5.276072621E-1
3.604308497E0,3.762048483E-1,-2.101990700E0,3.927550912E-1
3.609308497E0,4.921765327E-1,-2.358855724E0,2.452114820E-1
3.614308497E0,5.615575314E-1,-2.652047634E0,1.214676499E-1
3.619308497E0,4.064608812E-1,-2.858342648E0,-7.839411497E-2
3.624308497E0,1.331359148E-1,-2.978013992E0,-2.937790751E-1
3.629308497E0,-1.181336641E-1,-3.117137909E0,-4.793356061E-1
3.634308497E0,-2.743152380E-1,-3.284845829E0,-4.897867143E-1
3.639308497E0,-2.930423021E-1,-3.420437813E0,-3.829488754E-1
3.644308497E0,-1.848858595E-1,-3.496708393E0,-2.359287143E-1
3.649308497E0,-2.119207382E-2,-3.646167755E0,-7.357239723E-2
3.654308497E0,1.126701832E-1,-3.726576328E0,-6.399160624E-2
3.659308497E0,1.685841084E-1,-3.864541531E0,4.976332188E-3
3.664308497E0,2.154662609E-1,-3.900835991E0,9.995192289E-2
3.669308497E0,2.489041090E-1,-3.890104771E0,1.720354557E-1
3.674308497E0,2.853310108E-1,-3.877751350E0,1.817547083E-1
3.679308497E0,3.666938543E-1,-3.843215466E0,6.825053692E-2
3.684308497E0,4.436938763E-1,-3.802915096E0,-9.583300352E-2
3.689308497E0,4.694722891E-1,-3.820867538E0,-2.876423001E-1
3.694308497E0,4.836124182E-1,-3.877664566E0,-5.254933834E-1
3.699308497E0,4.950922728E-1,-3.873670578E0,-7.702287436E-1
3.704308497E0,5.585228205E-1,-3.869513988E0,-9.688126445E-1
3.709308497E0,6.656165123E-1,-3.862527370E0,-1.051124096E0
3.714308497E0,7.585060596E-1,-3.845067501E0,-1.041356444E0
3.719308497E0,7.226594687E-1,-3.807669163E0,-1.014604688E0
3.724308497E0,7.130147219E-1,-3.669970036E0,-1.062088966E0
3.729308497E0,6.550441980E-1,-3.577437878E0,-1.022926450E0
3.734308497E0,7.345533371E-1,-3.371690750E0,-9.033014774E-1
3.739308497E0,8.818664551E-1,-3.109138012E0,-7.970768213E-1
3.744308497E0,1.022974372E0,-2.793586731E0,-7.399626970E-1
3.749308497E0,1.130182028E0,-2.485083103E0,-7.838733196E-1
3.754308497E0,1.128391266E0,-2.164237022E0,-9.372872710E-1
3.759308497E0,1.112079978E0,-1.863115788E0,-1.062461972E0
3.764308497E0,1.046063542E0,-1.553454399E0,-1.040041208E0
3.769308497E0,1.075346589E0,-1.313218117E0,-1.018657804E0
3.774308497E0,1.182052016E0,-1.101633072E0,-9.681738615E-1
3.779308497E0,1.298727274E0,-8.608350754E-1,-9.434251785E-1
3.784308497E0,1.378216982E0,-5.606784821E-1,-9.745520353E-1
3.789308497E0,1.470629215E0,-2.142210007E-1,-1.051520824E0
3.794308497E0,1.557716608E0,8.720874786E-2,-1.143911719E0
3.799308497E0,1.599132538E0,3.300666809E-1,-1.228658319E0
3.804308497E0,1.685076356E0,6.231832504E-1,-1.232213736E0
3.809308497E0,1.615108490E0,8.237438202E-1,-1.111971140E0
3.814308497E0,1.475981355E0,1.069666862E0,-1.078574061E0
3.819308497E0,1.395090342E0,1.320510864E0,-1.065826416E0
3.824308497E0,1.262386560E0,1.524435997E0,-1.083624363E0
3.829308497E0,9.804382324E-1,1.781538010E0,-1.120128274E0
3.834308497E0,7.838155031E-1,2.057315826E0,-1.081727386E0
3.839308497E0,7.403361797E-1,2.376001358E0,-8.324172497E-1
3.844308497E0,7.059522867E-1,2.627702713E0,-5.340783596E-1
3.849308497E0,6.565028429E-1,2.781966209E0,-2.730628252E-1
3.854308497E0,5.963184834E-1,2.839733124E0,-1.425398588E-1
3.859308497E0,5.389758348E-1,2.773423195E0,-1.283822060E-1
3.864308497E0,4.493007660E-1,2.590052605E0,-1.641677618E-1
3.869308497E0,4.322410822E-1,2.321974754E0,-1.847726107E-1
3.874308497E0,4.623793364E-1,2.060021400E0,-2.002568245E-1
3.879308497E0,5.570482016E-1,1.694207191E0,-3.088533282E-1
3.884308497E0,6.986292601E-1,1.392720222E0,-3.891422749E-1
3.889308497E0,9.650304317E-1,1.221922874E0,-3.831230998E-1
3.894308497E0,1.312683105E0,1.269154549E0,-3.141853809E-1
3.899308497E0,1.630003572E0,1.545929909E0,-1.375188828E-1
3.904308497E0,1.975893855E0,1.985051155E0,9.312915802E-2
3.909308497E0,2.131166935E0,2.492154121E0,5.305193663E-1
3.914308497E0,2.233854294E0,2.953627586E0,1.005903006E0
3.919308497E0,2.243625641E0,3.282481194E0,1.468717694E0
3.924308497E0,1.995134234E0,3.447401047E0,1.896865606E0
3.929308497E0,1.363889456E0,3.407022476E0,2.201597929E0
3.934308497E0,4.638054371E-1,3.129864693E0,2.338876963E0
3.939308497E0,-4.652463198E-1,2.792284966E0,2.299872875E0
3.944308497E0,-1.348128080E0,2.434438705E0,2.082319736E0
3.949308497E0,-2.116343975E0,2.155879021E0,1.548583150E0
3.954308497E0,-2.546755791E0,1.968151093E0,1.012244105E0
3.959308497E0,-2.668053150E0,1.760794640E0,6.275855303E-1
3.964308497E0,-2.611779213E0,1.504740715E0,4.828090072E-1
3.969308497E0,-2.511361361E0,1.122817993E0,5.869998932E-1
3.974308497E0,-2.482152939E0,7.413930893E-1,7.865315080E-1
3.979308497E0,-2.508338451E0,5.131807327E-1,1.021992207E0
3.984308497E0,-2.479446650E0,3.772153854E-1,1.270802975E0
3.989308497E0,-2.164735317E0,2.580842972E-1,1.510509253E0
3.994308497E0,-1.730074286E0,1.933574677E-1,1.782993793E0
3.999308497E0,-1.479203343E0,4.728603363E-2,2.094559193E0
4.004308497E0,-1.323958158E0,-1.394233704E-1,2.280291080E0
4.009308497E0,-1.134683251E0,-2.225437164E-1,2.306759357E0
4.014308497E0,-1.100172043E0,-3.342647552E-1,2.321199179E0
4.019308497E0,-9.826570153E-1,-4.796590805E-1,2.173397779E0
4.024308497E0,-6.379820108E-1,-4.410591125E-1,1.954336047E0
4.029308497E0,-2.521560192E-1,-3.559799194E-1,1.709182620E0
4.034308497E0,5.997836590E-2,-2.359380722E-1,1.427143216E0
4.039308497E0,2.778425217E-1,-9.673595428E-2,1.133167028E0
4.044308497E0,4.329644442E-1,6.649017334E-3,8.812475204E-1
4.049308497E0,5.471477509E-1,1.184139252E-1,7.515803576E-1
4.054308497E0,6.820775270E-1,2.488822937E-1,6.651840210E-1
4.059308497E0,7.838730812E-1,3.194465637E-1,5.823252201E-1
4.064308497E0,8.002467155E-1,4.183902740E-1,5.349974632E-1
4.069308497E0,7.024592161E-1,4.972209930E-1,5.010440350E-1
4.074308497E0,5.300159454E-1,5.606412888E-1,3.767420053E-1
4.079308497E0,3.407579660E-1,5.948772430E-1,2.248426676E-1
4.084308497E0,1.698745489E-1,5.787410736E-1,1.174205542E-1
4.089308497E0,-3.333091736E-3,4.887847900E-1,5.289208889E-2
4.094308497E0,-1.834864616E-1,3.194208145E-1,-9.106492996E-2
4.099308497E0,-3.791100383E-1,1.645145416E-1,-2.359291315E-1
4.104308497E0,-5.552933812E-1,2.051353455E-2,-3.706556559E-1
4.109308497E0,-8.052466512E-1,-2.711296082E-1,-3.293191791E-1
4.114308497E0,-9.972534776E-1,-5.201492310E-1,-2.820947170E-1
4.119308497E0,-1.120740652E0,-7.645998001E-1,-1.033458710E-1
4.124308497E0,-1.301909447E0,-9.976692200E-1,1.723605394E-1
4.129308497E0,-1.337253809E0,-1.233190536E0,4.109274149E-1
4.134308497E0,-1.235542536E0,-1.446381569E0,5.782774687E-1
4.139308497E0,-1.057695508E0,-1.663849831E0,6.350831985E-1
4.144308497E0,-8.379015923E-1,-1.840229034E0,5.855770111E-1
4.149308497E0,-6.297614574E-1,-2.038626194E0,4.713000059E-1
4.154308497E0,-4.414776564E-1,-2.260245800E0,3.530378342E-1
4.159308497E0,-2.818523049E-1,-2.490721703E0,2.161859274E-1
4.164308497E0,-1.741961837E-1,-2.685234547E0,5.536329746E-2
4.169308497E0,-1.068639159E-1,-2.865290165E0,-9.664499760E-2
4.174308497E0,-3.193616867E-2,-3.007737637E0,-2.454984188E-1
4.179308497E0,4.477328062E-2,-3.115793228E0,-3.675187230E-1
4.184308497E0,1.241592169E-1,-3.177987099E0,-4.593227506E-1
4.189308497E0,1.998910904E-1,-3.238575459E0,-5.511927009E-1
4.194308497E0,2.963222861E-1,-3.274949074E0,-6.445703506E-1
4.199308497E0,3.840531111E-1,-3.291497707E0,-6.938823462E-1
4.204308497E0,4.782047272E-1,-3.361192226E0,-6.645617485E-1
4.209308497E0,5.475463867E-1,-3.455365658E0,-6.059139967E-1
4.214308497E0,6.099913120E-1,-3.565227509E0,-5.647729039E-1
4.219308497E0,7.011377811E-1,-3.630088806E0,-5.497466326E-1
4.224308497E0,7.823435068E-1,-3.680069923E0,-4.949785471E-1
4.229308497E0,9.371372461E-1,-3.702132225E0,-4.188981056E-1
4.234308497E0,1.137247324E0,-3.646000862E0,-3.874166608E-1
4.239308497E0,1.344893813E0,-3.546764374E0,-2.948046327E-1
4.244308497E0,1.483617187E0,-3.431665897E0,-2.278468609E-1
4.249308497E0,1.530267239E0,-3.326966286E0,-1.917355657E-1
4.254308497E0,1.549724340E0,-3.204420090E0,-1.391428113E-1
4.259308497E0,1.558837533E0,-3.060159683E0,-9.648346901E-2
4.264308497E0,1.534905910E0,-2.888192654E0,-9.687000513E-2
4.269308497E0,1.537399411E0,-2.738900661E0,-9.869319201E-2
4.274308497E0,1.532471180E0,-2.613876820E0,-1.313960552E-1
4.279308497E0,1.432450175E0,-2.468462467E0,-1.502562165E-1
4.284308497E0,1.302496195E0,-2.317611217E0,-9.239965677E-2
4.289308497E0,1.244119763E0,-2.095996857E0,8.306086063E-3
4.294308497E0,1.284382463E0,-1.833214760E0,1.152666211E-1
4.299308497E0,1.332434297E0,-1.563039780E0,2.573084831E-1
4.304308497E0,1.306944132E0,-1.338715553E0,4.661797285E-1
4.309308497E0,1.204007268E0,-1.114931107E0,6.200993657E-1
4.314308497E0,1.097664952E0,-8.835992813E-1,7.559826970E-1
4.319308497E0,1.083061337E0,-6.402873993E-1,8.840904832E-1
4.324308497E0,1.118114948E0,-3.964586258E-1,9.826393723E-1
4.329308497E0,1.174745083E0,-1.682538986E-1,1.087946415E0
4.334308497E0,1.268679500E0,6.183338165E-2,1.224313974E0
4.339308497E0,1.388284326E0,2.868003845E-1,1.306745529E0
4.344308497E0,1.551637173E0,4.691867828E-1,1.359012365E0
4.349308497E0,1.685120821E0,6.050825119E-1,1.294312477E0
4.354308497E0,1.825630069E0,6.701745987E-1,1.224874973E0
4.359308497E0,1.925970078E0,7.049779892E-1,1.146254897E0
4.364308497E0,1.977900505E0,7.335824966E-1,1.072553158E0
4.369308497E0,1.944490671E0,7.628135681E-1,1.010220170E0
4.374308497E0,1.901154876E0,7.981128693E-1,9.373338819E-1
4.379308497E0,1.888813734E0,8.395109177E-1,8.236570358E-1
4.384308497E0,1.885772228E0,8.566379547E-1,6.094610691E-1
4.389308497E0,1.804188967E0,8.770170212E-1,4.238523245E-1
4.394308497E0,1.636266351E0,8.765192032E-1,2.936524749E-1
4.399308497E0,1.506004930E0,8.829927444E-1,2.634211183E-1
4.404308497E0,1.514613152E0,9.753103256E-1,4.338055849E-1
4.409308497E0,1.726432085E0,1.248450279E0,6.867200136E-1
4.414308497E0,2.108380556E0,1.616640091E0,9.035627246E-1
4.419308497E0,2.476368427E0,2.151339531E0,1.103870869E0
4.424308497E0,2.707207441E0,2.790765762E0,1.301861286E0
4.429308497E0,2.915249348E0,3.455505371E0,1.403467178E0
4.434308497E0,3.025709391E0,4.060740471E0,1.419453859E0
4.439308497E0,2.895979881E0,4.503561974E0,1.353338838E0
4.444308497E0,2.312575817E0,4.782189369E0,1.267716646E0
4.449308497E0,1.379939318E0,4.979069710E0,1.237266421E0
4.454308497E0,2.761104107E-1,5.190571785E0,1.169197321E0
4.459308497E0,-8.824425936E-1,5.383425713E0,1.002075672E0
4.464308497E0,-2.014244318E0,5.538022995E0,6.662485003E-1
4.469308497E0,-3.107870340E0,5.592547417E0,1.291158795E-1
4.474308497E0,-4.128745556E0,5.484784126E0,-5.404640436E-1
4.479308497E0,-5.008527279E0,5.171914101E0,-1.259732723E0
4.484308497E0,-5.684624672E0,4.629070282E0,-1.894360542E0
4.489308497E0,-6.066658974E0,3.956521988E0,-2.301969528E0
4.494308497E0,-6.056087971E0,3.423077583E0,-2.502440929E0
4.499308497E0,-5.770986557E0,2.954998970E0,-2.420572281E0
4.504308497E0,-5.233443260E0,2.570485115E0,-2.284120560E0
4.509308497E0,-4.530446053E0,2.198485374E0,-2.156036377E0
4.514308497E0,-3.701069832E0,1.847938538E0,-1.966920972E0
4.519308497E0,-2.756285429E0,1.492596626E0,-1.829788446E0
4.524308497E0,-1.781131029E0,1.122720718E0,-1.661427498E0
4.529308497E0,-9.073823094E-1,7.907285690E-1,-1.519178748E0
4.534308497E0,-2.933059931E-1,5.841388702E-1,-1.320346594E0
4.539308497E0,1.611512899E-1,3.888921738E-1,-1.073436975E0
4.544308497E0,3.853785992E-1,2.301197052E-1,-7.450875044E-1
4.549308497E0,3.397520781E-1,9.274101257E-2,-4.488750696E-1
4.554308497E0,1.582936049E-1,-1.017761230E-2,-1.573393047E-1
4.559308497E0,9.904050827E-2,4.891109467E-2,5.272412300E-2
4.564308497E0,3.031529188E-1,2.334241867E-1,7.834142447E-2
4.569308497E0,6.447772980E-1,4.697790146E-1,1.272521615E-1
4.574308497E0,8.526762724E-1,6.036310196E-1,1.558105350E-1
4.579308497E0,8.330507278E-1,5.781593323E-1,2.746580839E-1
4.584308497E0,7.366784811E-1,5.660724640E-1,3.166258335E-1
4.589308497E0,4.885798693E-1,5.171613693E-1,3.428046703E-1
4.594308497E0,1.452318430E-1,4.222927094E-1,3.287038207E-1
4.599308497E0,-8.827984333E-2,3.463439941E-1,3.057976365E-1
4.604308497E0,-2.105153799E-1,3.470973969E-1,3.505439758E-1
4.609308497E0,-3.513969779E-1,3.025770187E-1,4.470008016E-1
4.614308497E0,-4.941186309E-1,1.562442780E-1,5.169001818E-1
4.619308497E0,-6.770905852E-1,-5.050945282E-2,5.691241622E-1
4.624308497E0,-8.802714348E-1,-3.371896744E-1,6.768252850E-1
4.629308497E0,-1.037485957E0,-6.143875122E-1,8.173831701E-1
4.634308497E0,-1.112777948E0,-9.385080338E-1,9.342013597E-1
4.639308497E0,-1.108572364E0,-1.275596619E0,9.829609394E-1
4.644308497E0,-1.003789306E0,-1.625196457E0,9.328064322E-1
4.649308497E0,-8.548254967E-1,-1.953503609E0,7.791696787E-1
4.654308497E0,-6.846044064E-1,-2.289781570E0,5.563957691E-1
4.659308497E0,-4.990963936E-1,-2.628598690E0,3.628343344E-1
4.664308497E0,-2.990795970E-1,-2.926812649E0,2.299160957E-1
4.669308497E0,-1.284562349E-1,-3.217187405E0,1.129623652E-1
4.674308497E0,1.311028004E-2,-3.465670109E0,9.463751316E-2
4.679308497E0,8.297359943E-2,-3.721159458E0,4.202836752E-2
4.684308497E0,1.189256907E-1,-3.948955536E0,1.793879271E-2
4.689308497E0,1.662632227E-1,-4.162563324E0,-4.169088602E-2
4.694308497E0,1.907777786E-1,-4.338147163E0,-9.156864882E-2
4.699308497E0,1.682674885E-1,-4.468588829E0,-1.875897646E-1
4.704308497E0,1.300792694E-1,-4.545169353E0,-2.795659900E-1
4.709308497E0,1.056165695E-1,-4.612675667E0,-4.104855657E-1
4.714308497E0,1.202719212E-1,-4.676027775E0,-4.250519276E-1
4.719308497E0,1.831719875E-1,-4.670318604E0,-3.952977657E-1
4.724308497E0,2.671079636E-1,-4.654414654E0,-3.115785122E-1
4.729308497E0,3.160177469E-1,-4.589730263E0,-2.111552358E-1
4.734308497E0,3.746517897E-1,-4.478214264E0,-1.615338922E-1
4.739308497E0,3.887646198E-1,-4.355021954E0,-2.427210808E-1
4.744308497E0,3.820457458E-1,-4.241641521E0,-3.401350975E-1
4.749308497E0,4.415742159E-1,-4.138957024E0,-4.291368127E-1
4.754308497E0,4.805223942E-1,-4.002881527E0,-5.198467970E-1
4.759308497E0,5.529378653E-1,-3.840135574E0,-5.963376164E-1
4.764308497E0,6.211601496E-1,-3.702034473E0,-6.795710921E-1
4.769308497E0,6.517190933E-1,-3.563586712E0,-7.250654101E-1
4.774308497E0,6.599582434E-1,-3.431285858E0,-7.488433123E-1
4.779308497E0,6.432871819E-1,-3.279333591E0,-7.438084483E-1
4.784308497E0,5.955815315E-1,-3.108485222E0,-7.625702620E-1
4.789308497E0,5.811272860E-1,-2.885043621E0,-8.144884109E-1
4.794308497E0,5.476561785E-1,-2.646276474E0,-8.977537155E-1
4.799308497E0,5.328673124E-1,-2.381195545E0,-9.626635313E-1
4.804308497E0,5.178868771E-1,-2.151614666E0,-9.975485802E-1
4.809308497E0,5.743098259E-1,-1.913325787E0,-1.020393133E0
4.814308497E0,6.711559296E-1,-1.616987705E0,-1.060677886E0
4.819308497E0,7.452019453E-1,-1.306262970E0,-1.109683871E0
4.824308497E0,7.536799908E-1,-1.027601242E0,-1.225673199E0
4.829308497E0,7.190694809E-1,-7.022457123E-1,-1.293483615E0
4.834308497E0,6.282764673E-1,-3.946943283E-1,-1.274430871E0
4.839308497E0,5.692819357E-1,-4.393005371E-2,-1.283591986E0
4.844308497E0,5.892481804E-1,3.365259171E-1,-1.273894191E0
4.849308497E0,6.180574894E-1,7.472333908E-1,-1.249436975E0
4.854308497E0,6.443152428E-1,1.125964165E0,-1.216750979E0
4.859308497E0,5.781773329E-1,1.382431030E0,-1.207308054E0
4.864308497E0,4.408178329E-1,1.590147972E0,-1.204204559E0
4.869308497E0,2.986501455E-1,1.776019096E0,-1.100084901E0
4.874308497E0,1.802699566E-1,1.938744545E0,-9.817764759E-1
4.879308497E0,5.803430080E-2,2.037899017E0,-8.640998602E-1
4.884308497E0,-1.962399483E-2,2.116781235E0,-6.877239943E-1
4.889308497E0,-3.262960911E-2,2.146555901E0,-4.725745916E-1
4.894308497E0,-5.117654800E-3,2.119793892E0,-2.896548510E-1
4.899308497E0,1.356592178E-1,2.074422836E0,-1.531404257E-1
4.904308497E0,3.371524811E-1,1.943466187E0,-1.250864267E-1
4.909308497E0,5.660912991E-1,1.776572227E0,-1.535260677E-1
4.914308497E0,8.395144939E-1,1.615886688E0,-1.955097914E-1
4.919308497E0,1.181588054E0,1.531880379E0,-1.695499420E-1
4.924308497E0,1.498256922E0,1.585319519E0,-3.105437756E-2
4.929308497E0,1.719994545E0,1.829749107E0,2.787244320E-1
4.934308497E0,1.896402359E0,2.310049057E0,6.870791912E-1
4.939308497E0,2.027059555E0,2.982793808E0,1.184633970E0
4.944308497E0,2.076681137E0,3.690843582E0,1.704045057E0
4.949308497E0,2.076983929E0,4.322316170E0,2.177611351E0
4.954308497E0,2.033975124E0,4.805711746E0,2.556530237E0
4.959308497E0,1.859027386E0,5.093064308E0,2.760672092E0
4.964308497E0,1.486581087E0,5.198701859E0,2.773218632E0
4.969308497E0,8.795908689E-1,5.157446861E0,2.776893377E0
4.974308497E0,1.446642876E-1,5.011276245E0,2.683883190E0
4.979308497E0,-8.036261201E-1,4.670411110E0,2.570885658E0
4.984308497E0,-1.826956391E0,4.302421570E0,2.173479557E0
4.989308497E0,-2.815108299E0,3.918134689E0,1.572239518E0
4.994308497E0,-3.832650423E0,3.338415146E0,1.037898421E0
4.999308497E0,-4.716444016E0,2.752175331E0,5.714452267E-1
5.004308497E0,-5.254140854E0,2.229598045E0,4.669778347E-1
5.009308497E0,-5.341880798E0,1.888185501E0,8.546211720E-1
5.014308497E0,-5.075250626E0,1.778680801E0,1.360515237E0
5.019308497E0,-4.610375881E0,1.775778770E0,1.941991448E0
5.024308497E0,-4.024206161E0,1.798154831E0,2.389008284E0
5.029308497E0,-3.240302563E0,1.790274620E0,2.613697529E0
5.034308497E0,-2.229734898E0,1.830556870E0,2.667875767E0
5.039308497E0,-1.209919453E0,1.823492050E0,2.623481750E0
5.044308497E0,-3.262263536E-1,1.694473267E0,2.327521801E0
5.049308497E0,2.239592075E-1,1.340622902E0,1.926786780E0
5.054308497E0,4.981120825E-1,9.555530548E-1,1.464913249E0
5.059308497E0,6.560981274E-1,5.398302078E-1,1.005054832E0
5.064308497E0,7.799853086E-1,1.112508774E-1,6.256306171E-1
5.069308497E0,9.113130569E-1,-1.458196640E-1,3.387106657E-1
5.074308497E0,1.074941039E0,-2.247457504E-1,8.298873901E-2
5.079308497E0,1.093499184E0,-2.711105347E-1,-1.690304279E-2
5.084308497E0,1.035681367E0,-3.164691925E-1,-6.105899811E-3
5.089308497E0,9.585999250E-1,-3.026475906E-1,6.080412865E-2
5.094308497E0,8.102214336E-1,-2.325172424E-1,1.743640900E-1
5.099308497E0,6.310372353E-1,-1.789369583E-1,2.411562204E-1
5.104308497E0,3.550739288E-1,-1.958923340E-1,2.497459650E-1
5.109308497E0,7.836532593E-2,-1.701393127E-1,1.812496185E-1
5.114308497E0,-2.147518992E-1,-2.058134079E-1,6.878149509E-2
5.119308497E0,-5.181611776E-1,-3.020172119E-1,-8.661377430E-2
5.124308497E0,-8.350552917E-1,-4.445714951E-1,-1.544427872E-1
5.129308497E0,-1.132338524E0,-5.899677277E-1,-1.823503971E-1
5.134308497E0,-1.412626028E0,-8.141756058E-1,-1.022050381E-1
5.139308497E0,-1.677730918E0,-1.103862762E0,8.979928493E-2
5.144308497E0,-1.789136052E0,-1.353584290E0,2.671188116E-1
5.149308497E0,-1.657472849E0,-1.542875290E0,4.613493681E-1
5.154308497E0,-1.247396946E0,-1.656274796E0,4.650186300E-1
5.159308497E0,-7.475433350E-1,-1.774854660E0,3.793357611E-1
5.164308497E0,-3.892061710E-1,-1.998636246E0,2.221593857E-1
5.169308497E0,-1.871452928E-1,-2.279697895E0,3.792583942E-2
5.174308497E0,-8.392089605E-2,-2.513016224E0,-1.212726831E-1
5.179308497E0,-1.333387494E-1,-2.829720974E0,-2.317113876E-1
5.184308497E0,-2.669250369E-1,-3.141066551E0,-3.302242756E-1
5.189308497E0,-3.595567942E-1,-3.345672607E0,-4.874436855E-1
5.194308497E0,-3.698669672E-1,-3.483588696E0,-6.443272829E-1
5.199308497E0,-3.132202029E-1,-3.609229088E0,-7.932307720E-1
5.204308497E0,-1.883829832E-1,-3.660921097E0,-9.499192238E-1
5.209308497E0,-3.063201904E-2,-3.673433304E0,-1.102950335E0
5.214308497E0,8.033573627E-2,-3.684620857E0,-1.180300951E0
5.219308497E0,1.119629145E-1,-3.686736584E0,-1.218177795E0
5.224308497E0,1.569496393E-1,-3.694621086E0,-1.239167213E0
5.229308497E0,2.310334444E-1,-3.671234131E0,-1.211303234E0
5.234308497E0,3.272564411E-1,-3.661675453E0,-1.151139617E0
5.239308497E0,4.119142294E-1,-3.631678581E0,-1.047456503E0
5.244308497E0,5.294885635E-1,-3.566964626E0,-9.430058002E-1
5.249308497E0,6.931263208E-1,-3.506521225E0,-8.183900118E-1
5.254308497E0,8.446605206E-1,-3.420532703E0,-6.514080167E-1
5.259308497E0,9.532587528E-1,-3.352274895E0,-5.263419151E-1
5.264308497E0,1.068708658E0,-3.314081669E0,-4.398334622E-1
5.269308497E0,1.126958013E0,-3.213202000E0,-3.505753279E-1
5.274308497E0,1.163689256E0,-3.103553772E0,-2.766193151E-1
5.279308497E0,1.169204593E0,-3.004589558E0,-2.246363163E-1
5.284308497E0,1.153764606E0,-2.897531986E0,-1.815867424E-1
5.289308497E0,1.063979387E0,-2.775589466E0,-1.616407633E-1
5.294308497E0,9.253931046E-1,-2.677554131E0,-1.526781321E-1
5.299308497E0,7.289382219E-1,-2.548822403E0,-1.307878494E-1
5.304308497E0,5.886690617E-1,-2.400973797E0,-5.011367798E-2
5.309308497E0,4.552631378E-1,-2.216707230E0,2.663421631E-2
5.314308497E0,3.902882338E-1,-2.013596535E0,9.589445591E-2
5.319308497E0,3.932818174E-1,-1.788389206E0,1.821162701E-1
5.324308497E0,4.435584545E-1,-1.548978806E0,2.308527231E-1
5.329308497E0,5.398589373E-1,-1.336380005E0,2.846254110E-1
5.334308497E0,6.129680872E-1,-1.132875443E0,2.900215387E-1
5.339308497E0,7.219322920E-1,-9.199199677E-1,3.061742783E-1
5.344308497E0,8.634283543E-1,-7.311944962E-1,3.212054968E-1
5.349308497E0,1.001592040E0,-6.068582535E-1,3.782563210E-1
5.354308497E0,1.128038526E0,-5.064392090E-1,4.781438112E-1
5.359308497E0,1.250926614E0,-4.047336578E-1,5.998747349E-1
5.364308497E0,1.413060904E0,-3.329210281E-1,7.209151983E-1
5.369308497E0,1.525306582E0,-2.521991730E-1,8.395123482E-1
5.374308497E0,1.593030930E0,-1.596145630E-1,9.159473181E-1
5.379308497E0,1.711885571E0,-8.094120026E-2,9.292989969E-1
5.384308497E0,1.845663071E0,-3.961372375E-2,9.311910868E-1
5.389308497E0,1.929834723E0,1.077461243E-2,9.129457474E-1
5.394308497E0,1.975731969E0,7.794189453E-2,8.894319534E-1
5.399308497E0,2.044655800E0,2.076931000E-1,8.904563189E-1
5.404308497E0,2.056273699E0,3.877439499E-1,8.571727276E-1
5.409308497E0,1.990995526E0,6.069898605E-1,7.426728010E-1
5.414308497E0,1.908237934E0,8.435268402E-1,6.563416719E-1
5.419308497E0,1.788635254E0,1.053471565E0,5.087975264E-1
5.424308497E0,1.612200260E0,1.188959122E0,3.270332813E-1
5.429308497E0,1.439247251E0,1.244338036E0,1.188529730E-1
5.434308497E0,1.301184416E0,1.289821625E0,-9.008091688E-2
5.439308497E0,1.249052644E0,1.407669067E0,-1.595590711E-1
5.444308497E0,1.276201010E0,1.693572998E0,-8.326172829E-3
5.449308497E0,1.381511569E0,2.146420479E0,3.360183239E-1
5.454308497E0,1.603244662E0,2.705594063E0,6.946001053E-1
5.459308497E0,1.748756289E0,3.330613136E0,1.009876370E0
5.464308497E0,1.743498325E0,3.929832458E0,1.266686916E0
5.469308497E0,1.661619306E0,4.424170494E0,1.434530258E0
5.474308497E0,1.602259398E0,4.847928047E0,1.389784694E0
5.479308497E0,1.460654020E0,5.147938728E0,1.253712296E0
5.484308497E0,1.091551065E0,5.240907669E0,9.624919891E-1
5.489308497E0,4.263914824E-1,5.174766541E0,4.830495119E-1
5.494308497E0,-5.964934230E-1,4.914999008E0,-5.911380053E-2
5.499308497E0,-1.825802326E0,4.567138672E0,-6.653010249E-1
5.504308497E0,-3.150375366E0,4.154376984E0,-1.353108168E0
5.509308497E0,-4.424056053E0,3.698693275E0,-2.037709236E0
5.514308497E0,-5.404206753E0,3.249323845E0,-2.637040377E0
5.519308497E0,-5.929985046E0,2.846959114E0,-3.046253920E0
5.524308497E0,-6.100461483E0,2.485451698E0,-3.121342897E0
5.529308497E0,-5.973726749E0,2.184979439E0,-2.845661402E0
5.534308497E0,-5.591190815E0,1.923101425E0,-2.427419662E0
5.539308497E0,-5.000685215E0,1.815438271E0,-2.140327930E0
5.544308497E0,-4.296653748E0,1.591166496E0,-1.960161448E0
5.549308497E0,-3.427301884E0,1.567903519E0,-1.853651524E0
5.554308497E0,-2.471017361E0,1.613706589E0,-1.831278086E0
5.559308497E0,-1.488739610E0,1.683555603E0,-1.698707938E0
5.564308497E0,-6.822147369E-1,1.608066559E0,-1.541308165E0
5.569308497E0,-8.584320545E-2,1.567103386E0,-1.205566049E0
5.574308497E0,3.883448839E-1,1.559460640E0,-9.804809093E-1
5.579308497E0,7.308547497E-1,1.554247856E0,-7.736369967E-1
5.584308497E0,9.013266563E-1,1.532842636E0,-5.781148672E-1
5.589308497E0,9.380091429E-1,1.498425484E0,-3.370255828E-1
5.594308497E0,9.529826641E-1,1.466953278E0,-1.681705117E-1
5.599308497E0,1.012376308E0,1.501940727E0,-7.310318947E-2
5.604308497E0,1.030733705E0,1.558593750E0,1.436376572E-2
5.609308497E0,1.004183292E0,1.605638504E0,2.376401424E-2
5.614308497E0,9.029127359E-1,1.652520180E0,-3.000879288E-2
5.619308497E0,6.549371481E-1,1.628600121E0,-7.306832075E-2
5.624308497E0,3.590775728E-1,1.566990852E0,-1.650992632E-1
5.629308497E0,7.269096375E-2,1.403606415E0,-1.839723587E-1
5.634308497E0,-2.656407356E-1,1.228466988E0,-1.334018707E-1
5.639308497E0,-6.518400908E-1,1.067915916E0,-7.707417011E-3
5.644308497E0,-1.016980171E0,9.034452438E-1,8.821082115E-2
5.649308497E0,-1.395244837E0,6.709566116E-1,1.836925745E-1
5.654308497E0,-1.703975797E0,4.447622299E-1,2.656722069E-1
5.659308497E0,-1.871867299E0,1.791210175E-1,3.110920787E-1
5.664308497E0,-1.863867760E0,-7.027626038E-2,3.073908091E-1
5.669308497E0,-1.648553729E0,-2.701473236E-1,2.589911222E-1
5.674308497E0,-1.275296330E0,-4.683008194E-1,2.275058031E-1
5.679308497E0,-8.415395021E-1,-7.290048599E-1,1.486506462E-1
5.684308497E0,-4.213989973E-1,-1.033823967E0,9.457349777E-3
5.689308497E0,-7.924950123E-2,-1.369613647E0,-2.030388117E-1
5.694308497E0,1.672492027E-1,-1.744736671E0,-3.675325513E-1
5.699308497E0,3.011593819E-1,-2.131304264E0,-4.208793044E-1
5.704308497E0,3.763443232E-1,-2.518687725E0,-4.819075465E-1
5.709308497E0,4.282289743E-1,-2.888463974E0,-5.407466888E-1
5.714308497E0,4.767051935E-1,-3.199333668E0,-6.290472746E-1
5.719308497E0,5.101944208E-1,-3.460916042E0,-7.205531597E-1
5.724308497E0,5.251009464E-1,-3.657548904E0,-8.004511595E-1
5.729308497E0,5.330655575E-1,-3.839767456E0,-8.249914646E-1
5.734308497E0,5.000749826E-1,-3.995754242E0,-8.323272467E-1
5.739308497E0,3.474935293E-1,-4.207452774E0,-8.179066777E-1
5.744308497E0,1.224598885E-1,-4.392916679E0,-8.007358313E-1
5.749308497E0,-7.418394089E-2,-4.538685799E0,-8.331598043E-1
5.754308497E0,-1.361396313E-1,-4.583102226E0,-8.051847219E-1
5.759308497E0,-5.557072163E-2,-4.570727348E0,-7.785036564E-1
5.764308497E0,7.559871674E-2,-4.566167831E0,-6.995410323E-1
5.769308497E0,1.378939152E-1,-4.519683838E0,-5.650221705E-1
5.774308497E0,1.074088812E-1,-4.504378796E0,-4.939184785E-1
5.779308497E0,8.525037766E-2,-4.430201054E0,-4.182522893E-1
5.784308497E0,4.912710190E-2,-4.313606739E0,-3.747448325E-1
5.789308497E0,-3.553628922E-3,-4.196678638E0,-3.566798568E-1
5.794308497E0,-4.578375816E-2,-4.015509129E0,-4.011568427E-1
5.799308497E0,-5.737364292E-2,-3.805147648E0,-4.284948111E-1
5.804308497E0,-1.327025890E-2,-3.559398651E0,-5.559508801E-1
5.809308497E0,-2.358806133E-2,-3.333184242E0,-7.559292316E-1
5.814308497E0,-8.201885223E-2,-3.157771111E0,-8.871372938E-1
5.819308497E0,-1.464877129E-1,-3.028322220E0,-9.549235702E-1
5.824308497E0,-1.691033840E-1,-2.916016102E0,-1.003861785E0
5.829308497E0,-1.426203251E-1,-2.762936115E0,-1.009849310E0
5.834308497E0,-6.794154644E-2,-2.543860912E0,-1.057571292E0
5.839308497E0,3.756690025E-2,-2.283722878E0,-1.138278604E0
5.844308497E0,1.714376211E-1,-2.014602661E0,-1.160996914E0
5.849308497E0,3.644974232E-1,-1.770219326E0,-1.309260130E0
5.854308497E0,5.399312973E-1,-1.523496151E0,-1.354696631E0
5.859308497E0,7.152540684E-1,-1.294777870E0,-1.293858409E0
5.864308497E0,8.529108763E-1,-1.079634666E0,-1.199637651E0
5.869308497E0,9.551582336E-1,-8.277282715E-1,-1.104668021E0
5.874308497E0,9.835214615E-1,-5.131521225E-1,-1.012443542E0
5.879308497E0,9.354513884E-1,-1.861543655E-1,-8.942629099E-1
5.884308497E0,8.745537996E-1,1.231889725E-1,-7.774159312E-1
5.889308497E0,7.567743063E-1,3.336029053E-1,-6.623474360E-1
5.894308497E0,5.891536474E-1,5.326519012E-1,-5.809410810E-1
5.899308497E0,4.027273655E-1,6.998472214E-1,-5.246593952E-1
5.904308497E0,2.303602695E-1,8.416252136E-1,-4.087309837E-1
5.909308497E0,1.118068695E-1,1.037489891E0,-4.807857871E-1
5.914308497E0,6.161510944E-2,1.211277962E0,-5.635966063E-1
5.919308497E0,9.127140045E-2,1.390160561E0,-4.415040016E-1
5.924308497E0,4.376208782E-2,1.525234222E0,-4.182000160E-1
5.929308497E0,-4.999387264E-2,1.585243225E0,-4.403628111E-1
5.934308497E0,-8.752191067E-2,1.548366547E0,-4.640514851E-1
5.939308497E0,-8.242452145E-2,1.440856934E0,-5.825511217E-1
5.944308497E0,6.358253956E-2,1.363069534E0,-6.916054487E-1
5.949308497E0,3.952522278E-1,1.400409698E0,-7.464794517E-1
5.954308497E0,7.890844345E-1,1.573712349E0,-6.930545568E-1
5.959308497E0,1.174335122E0,1.891139030E0,-4.673652649E-1
5.964308497E0,1.403702259E0,2.429307938E0,-2.410256863E-2
5.969308497E0,1.413668990E0,3.040531158E0,4.943981171E-1
5.974308497E0,1.259482384E0,3.608078003E0,1.055024147E0
5.979308497E0,1.084521413E0,4.117414474E0,1.631863117E0
5.984308497E0,9.696257114E-1,4.528724670E0,2.186114788E0
5.989308497E0,8.584392071E-1,4.846897125E0,2.649374008E0
5.994308497E0,6.140525341E-1,5.062139511E0,2.894512177E0
5.999308497E0,1.880979538E-1,5.121115685E0,2.908575058E0
6.004308497E0,-4.167826176E-1,5.058861732E0,2.751276016E0
6.009308497E0,-1.205973268E0,4.817584038E0,2.498575926E0
6.014308497E0,-2.139948368E0,4.433589935E0,2.048455715E0
6.019308497E0,-3.050002098E0,3.974890709E0,1.576915026E0
6.024308497E0,-3.831607342E0,3.513573647E0,1.166031361E0
6.029308497E0,-4.375375271E0,3.150416374E0,9.841085672E-1
6.034308497E0,-4.453977108E0,2.904478073E0,1.105700731E0
6.039308497E0,-4.241579056E0,2.730649948E0,1.464978218E0
6.044308497E0,-3.943626642E0,2.554500580E0,1.980810404E0
6.049308497E0,-3.613431692E0,2.354012489E0,2.451478243E0
6.054308497E0,-3.204909801E0,2.139036179E0,2.768635750E0
6.059308497E0,-2.686312675E0,1.901562691E0,2.956222773E0
6.064308497E0,-2.055860758E0,1.757781982E0,3.050904274E0
6.069308497E0,-1.321099281E0,1.629869461E0,2.906424522E0
6.074308497E0,-5.193784237E-1,1.473711014E0,2.644260406E0
6.079308497E0,1.524393559E-1,1.244135857E0,2.199720860E0
6.084308497E0,5.763558149E-1,9.131498337E-1,1.692836761E0
6.089308497E0,8.873685598E-1,6.577510834E-1,1.174535394E0
6.094308497E0,1.062900186E0,4.811363220E-1,7.297950983E-1
6.099308497E0,1.133745193E0,3.980321884E-1,3.380552530E-1
6.104308497E0,1.059013963E0,2.645301819E-1,7.474589348E-2
6.109308497E0,9.185357094E-1,2.464818954E-1,-4.514944553E-2
6.114308497E0,7.351846695E-1,3.316926956E-1,-2.678859234E-2
6.119308497E0,5.014510155E-1,4.652814865E-1,9.807384014E-2
6.124308497E0,2.162245512E-1,6.367559433E-1,2.423442602E-1
6.129308497E0,-1.288236380E-1,7.514257431E-1,3.173117638E-1
6.134308497E0,-4.241917729E-1,8.831300735E-1,2.239149809E-1
6.139308497E0,-7.268528342E-1,8.527259827E-1,1.011146307E-1
6.144308497E0,-1.024135232E0,6.956520081E-1,-5.188524723E-2
6.149308497E0,-1.299124599E0,4.539403915E-1,-2.018985748E-1
6.154308497E0,-1.510379434E0,1.338186264E-1,-3.091373444E-1
6.159308497E0,-1.635402322E0,-2.173824310E-1,-2.970774174E-1
6.164308497E0,-1.625428677E0,-5.681095123E-1,-2.434290648E-1
6.169308497E0,-1.479866266E0,-8.477115631E-1,-1.980564594E-1
6.174308497E0,-1.219581723E0,-1.095406532E0,-1.297014952E-1
6.179308497E0,-9.476516247E-1,-1.315427780E0,-3.299546242E-2
6.184308497E0,-6.937843561E-1,-1.556777000E0,3.793704510E-2
6.189308497E0,-5.053393841E-1,-1.830550671E0,7.378256321E-2
6.194308497E0,-3.530659676E-1,-2.115777969E0,6.202793121E-2
6.199308497E0,-2.558906674E-1,-2.418219566E0,-2.378916740E-2
6.204308497E0,-1.530035734E-1,-2.699693203E0,-1.333203316E-1
6.209308497E0,-9.564733505E-2,-2.970758915E0,-1.897698641E-1
6.214308497E0,-5.524396896E-2,-3.188678265E0,-2.764751911E-1
6.219308497E0,-6.826472282E-2,-3.406352043E0,-3.140329123E-1
6.224308497E0,-6.187057495E-2,-3.615219116E0,-3.180121183E-1
6.229308497E0,-2.908778191E-2,-3.803381443E0,-3.582880497E-1
6.234308497E0,-2.402448654E-2,-3.984765053E0,-4.231314659E-1
6.239308497E0,-5.980145931E-2,-4.137315273E0,-4.989534616E-1
6.244308497E0,-1.188924313E-1,-4.268387794E0,-6.074563861E-1
6.249308497E0,-1.575103998E-1,-4.346598148E0,-7.404580712E-1
6.254308497E0,-1.532055140E-1,-4.383563995E0,-8.208281994E-1
6.259308497E0,-1.053255796E-1,-4.430753231E0,-8.541171551E-1
6.264308497E0,3.370046616E-4,-4.450984001E0,-8.436042070E-1
6.269308497E0,1.361908913E-1,-4.465659142E0,-8.437045813E-1
6.274308497E0,3.200711012E-1,-4.422096729E0,-8.571085930E-1
6.279308497E0,4.708124399E-1,-4.347373009E0,-8.559272289E-1
6.284308497E0,6.016397476E-1,-4.249548912E0,-8.241413832E-1
6.289308497E0,7.113771439E-1,-4.102326393E0,-7.647893429E-1
6.294308497E0,8.376501799E-1,-3.944575310E0,-6.674608588E-1
6.299308497E0,9.414862394E-1,-3.760550022E0,-5.284107924E-1
6.304308497E0,1.081404805E0,-3.561618805E0,-3.700905442E-1
6.309308497E0,1.254325867E0,-3.352406502E0,-2.535633445E-1
6.314308497E0,1.456693530E0,-3.084341526E0,-1.481986046E-1
6.319308497E0,1.669230819E0,-2.820511818E0,-1.040707827E-1
6.324308497E0,1.844425082E0,-2.583824635E0,4.148006439E-3
6.329308497E0,1.953730106E0,-2.362066269E0,9.230363369E-2
6.334308497E0,1.945533633E0,-2.175050259E0,1.560163498E-1
6.339308497E0,1.760433793E0,-1.982448578E0,2.360056639E-1
6.344308497E0,1.377381206E0,-1.777848244E0,3.513975143E-1
6.349308497E0,1.060354114E0,-1.523077011E0,4.887280464E-1
6.354308497E0,9.457807541E-1,-1.179828644E0,6.387686729E-1
6.359308497E0,1.041841507E0,-7.234096527E-1,7.302588224E-1
6.364308497E0,1.192709446E0,-2.866477966E-1,8.858906031E-1
6.369308497E0,1.378676057E0,1.276483536E-1,9.988192320E-1
6.374308497E0,1.383450866E0,3.991785049E-1,1.220636010E0
6.379308497E0,1.268819094E0,5.957450867E-1,1.349015474E0
6.384308497E0,1.312124491E0,8.110942841E-1,1.428373098E0
6.389308497E0,1.337898254E0,8.757753372E-1,1.576289892E0
6.394308497E0,1.434167504E0,8.891830444E-1,1.597047567E0
6.399308497E0,1.587945700E0,9.809732437E-1,1.624871850E0
6.404308497E0,1.746730328E0,1.022633553E0,1.589939356E0
6.409308497E0,1.884082437E0,9.328031540E-1,1.431205630E0
6.414308497E0,2.013521671E0,8.140316010E-1,1.245925426E0
6.419308497E0,2.054004431E0,6.937627792E-1,1.088375330E0
6.424308497E0,2.087997437E0,6.033935547E-1,1.020756006E0
6.429308497E0,2.160213709E0,5.462350845E-1,9.509955645E-1
6.434308497E0,2.181674957E0,5.039100647E-1,9.737567902E-1
6.439308497E0,2.132745743E0,5.065374374E-1,1.051962137E0
6.444308497E0,2.118223667E0,5.924949646E-1,1.142078638E0
6.449308497E0,2.152739525E0,7.266359329E-1,1.203113198E0
6.454308497E0,2.252910137E0,8.659944534E-1,1.185719371E0
6.459308497E0,2.430002213E0,1.024215698E0,1.141464233E0
6.464308497E0,2.565937519E0,1.177010536E0,1.116575956E0
6.469308497E0,2.649302959E0,1.375194550E0,1.171915174E0
6.474308497E0,2.658575535E0,1.558064461E0,1.256526589E0
6.479308497E0,2.652198792E0,1.830457687E0,1.349031925E0
6.484308497E0,2.641986847E0,2.190837860E0,1.400974631E0
6.489308497E0,2.565849781E0,2.623134613E0,1.413009882E0
6.494308497E0,2.353291035E0,3.097024918E0,1.429428458E0
6.499308497E0,2.050234795E0,3.630815506E0,1.431259155E0
6.504308497E0,1.716484785E0,4.170298576E0,1.363145113E0
6.509308497E0,1.346706510E0,4.662918091E0,1.259782076E0
6.514308497E0,8.977704048E-1,4.985295296E0,1.085498571E0
6.519308497E0,2.600957155E-1,5.118081093E0,8.462750912E-1
6.524308497E0,-5.860192776E-1,5.054141045E0,5.826027393E-1
6.529308497E0,-1.495675921E0,4.935573578E0,2.655889988E-1
6.534308497E0,-2.349466324E0,4.679108620E0,-3.003358841E-2
6.539308497E0,-3.093074560E0,4.413773537E0,-3.868947625E-1
6.544308497E0,-3.699686050E0,3.991778374E0,-7.797070742E-1
6.549308497E0,-4.125419617E0,3.454163551E0,-1.225737572E0
6.554308497E0,-4.232710361E0,2.904095650E0,-1.646747351E0
6.559308497E0,-4.028940201E0,2.416745186E0,-1.925222993E0
6.564308497E0,-3.666007519E0,1.958916664E0,-2.056312561E0
6.569308497E0,-3.272277355E0,1.499165535E0,-2.091877460E0
6.574308497E0,-2.925585985E0,9.665689468E-1,-1.990043879E0
6.579308497E0,-2.568639040E0,5.084247589E-1,-1.816627264E0
6.584308497E0,-2.211169243E0,1.013889313E-1,-1.567427635E0
6.589308497E0,-1.808554649E0,-2.307729721E-1,-1.226442099E0
6.594308497E0,-1.421998501E0,-4.755220413E-1,-8.735395670E-1
6.599308497E0,-1.044116497E0,-6.524124146E-1,-5.968143940E-1
6.604308497E0,-6.518082023E-1,-7.111024857E-1,-4.532701373E-1
6.609308497E0,-2.895615101E-1,-6.923189163E-1,-4.203827977E-1
6.614308497E0,-3.956651688E-2,-6.951904297E-1,-5.215959549E-1
6.619308497E0,1.086902618E-1,-6.339530945E-1,-6.270522475E-1
6.624308497E0,1.759154797E-1,-6.146011353E-1,-7.947998643E-1
6.629308497E0,1.071554422E-1,-6.211862564E-1,-9.364559650E-1
6.634308497E0,-1.734173298E-2,-6.449193954E-1,-9.477031231E-1
6.639308497E0,-1.321651936E-1,-6.121702194E-1,-9.442455769E-1
6.644308497E0,-1.608953476E-1,-4.215030670E-1,-1.015579700E0
6.649308497E0,-1.302905083E-1,-1.553926468E-1,-1.029471755E0
6.654308497E0,1.469290257E-2,1.502180099E-1,-1.000142217E0
6.659308497E0,1.332036257E-1,4.261207581E-1,-8.567676544E-1
6.664308497E0,1.658711433E-1,5.819330215E-1,-6.227331161E-1
6.669308497E0,1.038573980E-1,6.552686691E-1,-3.922882080E-1
6.674308497E0,-8.376300335E-2,6.359090805E-1,-2.307375669E-1
6.679308497E0,-3.016641140E-1,5.543251038E-1,-1.624062061E-1
6.684308497E0,-5.583011508E-1,3.540744781E-1,-1.256906390E-1
6.689308497E0,-8.244215250E-1,1.409006119E-1,-8.030939102E-2
6.694308497E0,-1.065023661E0,-4.774093628E-2,-1.700341702E-2
6.699308497E0,-1.198997140E0,-1.303339005E-1,2.828240395E-2
6.704308497E0,-1.264723659E0,-2.742481232E-1,-3.526318073E-2
6.709308497E0,-1.268369436E0,-4.621667862E-1,-4.946708679E-2
6.714308497E0,-1.148332119E0,-6.429538727E-1,-3.612041473E-5
6.719308497E0,-9.466551542E-1,-8.061628342E-1,8.508563042E-2
6.724308497E0,-6.833738089E-1,-9.777574539E-1,1.686521769E-1
6.729308497E0,-3.918307424E-1,-1.161004066E0,1.513497829E-1
6.734308497E0,-1.126044989E-1,-1.368562698E0,5.543291569E-2
6.739308497E0,1.258791685E-1,-1.579115868E0,-3.469228745E-2
6.744308497E0,3.314893246E-1,-1.817657948E0,-7.567250729E-2
6.749308497E0,4.818588495E-1,-2.105616570E0,-1.578633785E-1
6.754308497E0,5.709508657E-1,-2.364627838E0,-1.721272469E-1
6.759308497E0,6.391850710E-1,-2.640050888E0,-2.938727140E-1
6.764308497E0,6.297316551E-1,-2.889642239E0,-2.769249678E-1
6.769308497E0,6.202358007E-1,-3.097893238E0,-2.633767128E-1
6.774308497E0,5.945597887E-1,-3.294801235E0,-2.890939713E-1
6.779308497E0,5.339825153E-1,-3.433208466E0,-2.947024107E-1
6.784308497E0,4.286563396E-1,-3.567597866E0,-3.035470247E-1
6.789308497E0,3.070467710E-1,-3.673779488E0,-3.051762581E-1
6.794308497E0,2.150825262E-1,-3.703314304E0,-3.444958925E-1
6.799308497E0,1.610409021E-1,-3.701424599E0,-4.275147915E-1
6.804308497E0,9.210526943E-2,-3.691795826E0,-4.686143398E-1
6.809308497E0,2.832674980E-2,-3.649630070E0,-4.862090349E-1
6.814308497E0,-4.363620281E-2,-3.563704491E0,-5.035224557E-1
6.819308497E0,-8.859455585E-2,-3.491567135E0,-4.963470697E-1
6.824308497E0,-1.294394732E-1,-3.413822174E0,-4.441048503E-1
6.829308497E0,-1.140912771E-1,-3.281567574E0,-4.054480791E-1
6.834308497E0,-8.775806427E-2,-3.081267834E0,-5.644865036E-1
6.839308497E0,1.051735878E-2,-2.860514641E0,-7.437986732E-1
6.844308497E0,1.078263521E-1,-2.670636654E0,-8.419983387E-1
6.849308497E0,1.709401608E-1,-2.534436703E0,-9.830254316E-1
6.854308497E0,2.272770405E-1,-2.461843491E0,-1.049431682E0
6.859308497E0,2.756824493E-1,-2.370297432E0,-1.135451078E0
6.864308497E0,3.045024872E-1,-2.271231174E0,-1.241763830E0
6.869308497E0,3.229839802E-1,-2.110605717E0,-1.366919756E0
6.874308497E0,3.688421249E-1,-1.958619595E0,-1.375366807E0
6.879308497E0,4.019130468E-1,-1.836861610E0,-1.364268780E0
6.884308497E0,3.980163336E-1,-1.717964172E0,-1.464181542E0
6.889308497E0,3.760278225E-1,-1.582435608E0,-1.591299295E0
6.894308497E0,3.181337118E-1,-1.442564011E0,-1.677000284E0
6.899308497E0,2.354632616E-1,-1.275690079E0,-1.661532521E0
6.904308497E0,2.143136263E-1,-1.083045006E0,-1.593080401E0
6.909308497E0,2.415699959E-1,-7.951583862E-1,-1.470590353E0
6.914308497E0,2.753823996E-1,-4.524202347E-1,-1.290068984E0
6.919308497E0,3.876273632E-1,-6.022167206E-2,-1.127882123E0
6.924308497E0,5.689167976E-1,3.670463562E-1,-9.731961489E-1
6.929308497E0,7.547192574E-1,7.965908051E-1,-8.154153228E-1
6.934308497E0,9.691752195E-1,1.141767502E0,-6.261665225E-1
6.939308497E0,1.163147211E0,1.387061119E0,-4.080585241E-1
6.944308497E0,1.133458614E0,1.582894325E0,-3.610755205E-1
6.949308497E0,8.807349205E-1,1.621140480E0,-3.418229818E-1
6.954308497E0,6.316940784E-1,1.627369881E0,-3.380473852E-1
6.959308497E0,5.117101669E-1,1.651178360E0,-3.838520050E-1
6.964308497E0,5.223556757E-1,1.702741623E0,-4.458799362E-1
6.969308497E0,5.105710030E-1,1.776704788E0,-5.110968351E-1
6.974308497E0,4.461776018E-1,1.779443741E0,-5.569852591E-1
6.979308497E0,4.679688215E-1,1.794796944E0,-5.931601524E-1
6.984308497E0,4.433612823E-1,1.767914772E0,-6.606075764E-1
6.989308497E0,3.862619400E-1,1.684285164E0,-7.539948821E-1
6.994308497E0,3.953440189E-1,1.622072220E0,-8.376962543E-1
6.999308497E0,4.659311771E-1,1.648922920E0,-7.777855992E-1
7.004308497E0,6.532075405E-1,1.868692398E0,-5.919135809E-1
7.009308497E0,8.945955038E-1,2.203975677E0,-1.651737690E-1
7.014308497E0,1.199795365E0,2.769748688E0,4.807819128E-1
7.019308497E0,1.564525485E0,3.436555862E0,1.212422490E0
7.024308497E0,1.894077659E0,4.105504990E0,1.840026379E0
7.029308497E0,2.058641911E0,4.686499596E0,2.337638855E0
7.034308497E0,1.971505165E0,5.037409782E0,2.642198086E0
7.039308497E0,1.577769279E0,5.184882164E0,2.790414333E0
7.044308497E0,9.080972672E-1,5.179613113E0,2.836535931E0
7.049308497E0,2.986907959E-2,4.877708435E0,2.907466888E0
7.054308497E0,-8.326966763E-1,4.744408607E0,2.714202881E0
7.059308497E0,-1.580621243E0,4.609600067E0,2.503778934E0
7.064308497E0,-2.291765690E0,4.390456200E0,2.127328396E0
7.069308497E0,-3.018915176E0,4.032962799E0,1.562520981E0
7.074308497E0,-3.640925407E0,3.496307373E0,1.004835486E0
7.079308497E0,-4.069122314E0,2.876015663E0,6.397470236E-1
7.084308497E0,-4.221960068E0,2.333794594E0,6.044753790E-1
7.089308497E0,-4.177790642E0,1.916356087E0,8.956501484E-1
7.094308497E0,-3.999660015E0,1.624166489E0,1.430644274E0
7.099308497E0,-3.776018143E0,1.399939537E0,1.973427534E0
7.104308497E0,-3.473912954E0,1.232409477E0,2.317587376E0
7.109308497E0,-2.937924862E0,1.112663269E0,2.503796339E0
7.114308497E0,-2.157823801E0,1.134423256E0,2.656494379E0
7.119308497E0,-1.388704896E0,9.876527786E-1,2.739605665E0
7.124308497E0,-7.107977867E-1,6.801156998E-1,2.722994328E0
7.129308497E0,-1.062197685E-1,3.559064865E-1,2.558028698E0
7.134308497E0,4.085724354E-1,-5.662441254E-2,2.232387543E0
7.139308497E0,6.977281570E-1,-4.936399460E-1,1.707539320E0
7.144308497E0,8.857281208E-1,-8.792247772E-1,1.210733414E0
7.149308497E0,1.008359790E0,-1.240907669E0,7.720342875E-1
7.154308497E0,1.115312815E0,-1.368257523E0,3.336875439E-1
7.159308497E0,1.230940461E0,-1.280913353E0,9.774088860E-3
7.164308497E0,1.082252979E0,-1.222540855E0,-1.091537476E-1
7.169308497E0,1.033300042E0,-1.080874443E0,-1.140012741E-1
7.174308497E0,8.481079340E-1,-8.953943253E-1,-4.297482967E-2
7.179308497E0,6.296633482E-1,-6.510066986E-1,-2.262043953E-2
7.184308497E0,3.529249430E-1,-4.929409027E-1,7.650804520E-2
7.189308497E0,3.454589844E-2,-4.243431091E-1,1.457951069E-1
7.194308497E0,-2.612161636E-1,-4.664659500E-1,2.174276114E-1
7.199308497E0,-4.668110013E-1,-4.379148483E-1,1.724071503E-1
7.204308497E0,-6.912251711E-1,-5.216331482E-1,1.135139465E-1
7.209308497E0,-1.002907753E0,-6.463947296E-1,1.379121542E-1
7.214308497E0,-1.273207664E0,-7.739458084E-1,9.457457066E-2
7.219308497E0,-1.385681272E0,-8.833389282E-1,3.945195675E-2
7.224308497E0,-1.395158291E0,-1.027872086E0,5.033135414E-3
7.229308497E0,-1.334351182E0,-1.181962967E0,-2.116346359E-2
7.234308497E0,-1.220383048E0,-1.387763023E0,-9.328842163E-2
7.239308497E0,-1.160823822E0,-1.614745617E0,-1.254363060E-1
7.244308497E0,-1.081816792E0,-1.835974693E0,-1.414926052E-1
7.249308497E0,-9.718933702E-1,-2.077635288E0,-1.389724016E-1
7.254308497E0,-8.494743109E-1,-2.339211464E0,-1.964371204E-1
7.259308497E0,-6.847713590E-1,-2.601328850E0,-2.840811014E-1
7.264308497E0,-5.093853474E-1,-2.878600597E0,-3.733329773E-1
7.269308497E0,-3.483180404E-1,-3.096823215E0,-4.692547321E-1
7.274308497E0,-2.286062241E-1,-3.314824104E0,-6.415388584E-1
7.279308497E0,-1.398934126E-1,-3.532840252E0,-6.297164559E-1
7.284308497E0,-6.599867344E-2,-3.685593605E0,-6.859624982E-1
7.289308497E0,1.060497761E-2,-3.839611053E0,-7.739177942E-1
7.294308497E0,1.129652262E-1,-3.955475330E0,-8.728689551E-1
7.299308497E0,2.729526758E-1,-4.009313583E0,-9.614375234E-1
7.304308497E0,4.481464624E-1,-4.043595314E0,-9.637167454E-1
7.309308497E0,5.253174305E-1,-4.067334175E0,-9.769481421E-1
7.314308497E0,5.711259842E-1,-4.031428337E0,-1.007906199E0
7.319308497E0,6.010031700E-1,-3.971208096E0,-1.019886374E0
7.324308497E0,6.244647503E-1,-3.869065285E0,-1.008737087E0
7.329308497E0,6.448662281E-1,-3.769398212E0,-9.336637259E-1
7.334308497E0,6.474221945E-1,-3.647932053E0,-8.105645776E-1
7.339308497E0,7.562949657E-1,-3.505556107E0,-6.430487633E-1
7.344308497E0,8.903442621E-1,-3.323978901E0,-5.359458923E-1
7.349308497E0,1.019991517E0,-3.090529919E0,-4.379850626E-1
7.354308497E0,1.144976497E0,-2.839778900E0,-3.241318464E-1
7.359308497E0,1.252699375E0,-2.596333027E0,-2.238582373E-1
7.364308497E0,1.331225514E0,-2.407856464E0,-9.063863754E-2
7.369308497E0,1.382354736E0,-2.218994141E0,4.432690144E-2
7.374308497E0,1.398997068E0,-1.991044044E0,1.250219345E-1
7.379308497E0,1.333718300E0,-1.773982525E0,1.878404617E-1
7.384308497E0,1.267310619E0,-1.515389442E0,2.256051302E-1
7.389308497E0,1.187834740E0,-1.258931160E0,2.903124094E-1
7.394308497E0,1.127490401E0,-9.714746475E-1,3.553328514E-1
7.399308497E0,1.029007196E0,-7.543811798E-1,4.412860870E-1
7.404308497E0,9.928641319E-1,-4.620161057E-1,5.452661514E-1
7.409308497E0,9.911451340E-1,-2.043457031E-1,5.942927599E-1
7.414308497E0,1.002322078E0,5.275726318E-2,7.693158388E-1
7.419308497E0,1.072310209E0,3.030128479E-1,9.180408716E-1
7.424308497E0,1.213348985E0,5.462236404E-1,1.047925472E0
7.429308497E0,1.383752108E0,7.007884979E-1,1.194335222E0
7.434308497E0,1.575685978E0,7.673759460E-1,1.314656854E0
7.439308497E0,1.718463659E0,7.753200531E-1,1.385357499E0
7.444308497E0,1.828683734E0,7.260694504E-1,1.370037913E0
7.449308497E0,1.877916694E0,6.603317261E-1,1.319756031E0
7.454308497E0,1.880014896E0,5.209789276E-1,1.228313804E0
7.459308497E0,1.922625780E0,4.098491669E-1,1.164879203E0
7.464308497E0,1.939612508E0,3.232069016E-1,1.106908202E0
7.469308497E0,1.926824331E0,2.585458755E-1,1.032258391E0
7.474308497E0,1.919587970E0,2.187318802E-1,9.832364321E-1
7.479308497E0,1.944693565E0,2.211313248E-1,9.384185076E-1
7.484308497E0,1.982031465E0,2.724294662E-1,9.717980623E-1
7.489308497E0,1.941864133E0,3.335304260E-1,1.008280158E0
7.494308497E0,1.833084583E0,4.291572571E-1,9.158586264E-1
7.499308497E0,1.733840823E0,5.206155777E-1,7.707719803E-1
7.504308497E0,1.617561698E0,5.727081299E-1,6.735562086E-1
7.509308497E0,1.563975811E0,6.642704010E-1,6.742091179E-1
7.514308497E0,1.549212098E0,7.888784409E-1,7.053034306E-1
7.519308497E0,1.555615664E0,1.034844398E0,7.937445641E-1
7.524308497E0,1.600155592E0,1.415039062E0,8.729629517E-1
7.529308497E0,1.791473031E0,1.964146614E0,9.830955267E-1
7.534308497E0,1.950285673E0,2.593379021E0,1.044112444E0
7.539308497E0,1.983937263E0,3.246790886E0,1.124006629E0
7.544308497E0,1.812429547E0,3.850092888E0,1.246414900E0
7.549308497E0,1.547561169E0,4.367000580E0,1.342596292E0
7.554308497E0,1.294045925E0,4.773055077E0,1.347800016E0
7.559308497E0,1.055351377E0,5.113450050E0,1.228124142E0
7.564308497E0,7.036594152E-1,5.346004486E0,9.200811386E-1
7.569308497E0,1.339209080E-1,5.533553123E0,5.867419243E-1
7.574308497E0,-7.274529338E-1,5.608334541E0,2.155784369E-1
7.579308497E0,-1.664308906E0,5.498031616E0,-1.758980751E-1
7.584308497E0,-2.664369583E0,5.248559952E0,-6.057551503E-1
7.589308497E0,-3.683315277E0,4.741536140E0,-1.145402551E0
7.594308497E0,-4.558052540E0,4.063263893E0,-1.827943563E0
7.599308497E0,-4.952989101E0,3.398426056E0,-2.477238894E0
7.604308497E0,-4.944834709E0,2.909523964E0,-2.910195112E0
7.609308497E0,-4.817716599E0,2.416973114E0,-2.996253252E0
7.614308497E0,-4.638976097E0,1.916651726E0,-2.832947254E0
7.619308497E0,-4.356924057E0,1.447907448E0,-2.498363495E0
7.624308497E0,-3.952963352E0,9.693841934E-1,-2.092289686E0
7.629308497E0,-3.419807196E0,5.671710968E-1,-1.655899405E0
7.634308497E0,-2.729573250E0,3.630723953E-1,-1.283209324E0
7.639308497E0,-1.939375639E0,2.687168121E-1,-9.363043308E-1
7.644308497E0,-1.150281191E0,2.986583710E-1,-7.071591616E-1
7.649308497E0,-4.788535833E-1,2.299118042E-1,-5.452542901E-1
7.654308497E0,4.497444630E-2,2.540836334E-1,-5.241746306E-1
7.659308497E0,3.836935759E-1,2.865428925E-1,-5.841668844E-1
7.664308497E0,5.505172014E-1,2.371978760E-1,-5.821272135E-1
7.669308497E0,6.413338184E-1,2.434749603E-1,-4.518368244E-1
7.674308497E0,7.117331028E-1,2.538681030E-1,-3.213981986E-1
7.679308497E0,7.581520081E-1,3.185634613E-1,-1.985310316E-1
7.684308497E0,7.638603449E-1,3.822641373E-1,-7.487416267E-2
7.689308497E0,6.875479221E-1,4.009857178E-1,9.421622753E-2
7.694308497E0,5.426937342E-1,4.813146591E-1,2.229841948E-1
7.699308497E0,3.386856318E-1,5.792646408E-1,2.889202833E-1
7.704308497E0,7.400941849E-2,6.096887589E-1,3.167545795E-1
7.709308497E0,-1.907578707E-1,5.628824234E-1,3.707671165E-1
7.714308497E0,-4.382151365E-1,5.334815979E-1,4.536046982E-1
7.719308497E0,-6.691344380E-1,4.672870636E-1,4.134021997E-1
7.724308497E0,-8.737725019E-1,3.663091660E-1,3.452914953E-1
7.729308497E0,-1.062702656E0,2.178373337E-1,2.572299242E-1
7.734308497E0,-1.201482534E0,6.589889526E-3,1.639248133E-1
7.739308497E0,-1.216520309E0,-2.414007187E-1,1.748819351E-1
7.744308497E0,-1.106251717E0,-4.659271240E-1,2.569130659E-1
7.749308497E0,-9.234262705E-1,-6.990518570E-1,3.720812798E-1
7.754308497E0,-7.029440999E-1,-9.455327988E-1,4.315609932E-1
7.759308497E0,-4.734171629E-1,-1.234727859E0,4.243698120E-1
7.764308497E0,-2.825257778E-1,-1.586915970E0,3.758695126E-1
7.769308497E0,-1.327611208E-1,-1.902100086E0,3.171286583E-1
7.774308497E0,-3.370308876E-2,-2.222682953E0,2.449936867E-1
7.779308497E0,1.005141735E-1,-2.549729347E0,2.458171844E-1
7.784308497E0,1.827428341E-1,-2.811374664E0,1.806902885E-1
7.789308497E0,2.703716755E-1,-3.067274094E0,9.339010715E-2
7.794308497E0,3.233596087E-1,-3.284422398E0,-3.572928905E-2
7.799308497E0,3.247842789E-1,-3.469257355E0,-1.730455160E-1
7.804308497E0,2.876609564E-1,-3.669466019E0,-3.022260666E-1
7.809308497E0,2.093434334E-1,-3.831892490E0,-4.712558985E-1
7.814308497E0,1.358473301E-1,-3.945644855E0,-5.749924183E-1
7.819308497E0,1.068648100E-1,-3.992623329E0,-7.038337588E-1
7.824308497E0,1.289734840E-1,-4.034231663E0,-8.462604284E-1
7.829308497E0,2.142416239E-1,-3.995070457E0,-1.000139713E0
7.834308497E0,2.475558519E-1,-3.974325657E0,-1.146792769E0
7.839308497E0,1.827220917E-1,-3.901892662E0,-1.246557474E0
7.844308497E0,1.119432449E-1,-3.839666367E0,-1.250093102E0
7.849308497E0,7.552742958E-2,-3.766658306E0,-1.082650542E0
7.854308497E0,9.116041660E-2,-3.661908150E0,-8.934208155E-1
7.859308497E0,1.070405245E-1,-3.527280331E0,-7.676624060E-1
7.864308497E0,1.761484146E-1,-3.350579262E0,-7.067040801E-1
7.869308497E0,2.663503885E-1,-3.154327869E0,-6.900458336E-1
7.874308497E0,3.132345676E-1,-2.984294415E0,-7.212792635E-1
7.879308497E0,3.581504822E-1,-2.827836990E0,-7.069902420E-1
7.884308497E0,3.409310579E-1,-2.694026947E0,-6.750149727E-1
7.889308497E0,2.661321163E-1,-2.578640938E0,-7.298592925E-1
7.894308497E0,2.169072628E-1,-2.450170040E0,-7.913283110E-1
7.899308497E0,2.193180323E-1,-2.273081779E0,-8.552133441E-1
7.904308497E0,1.971566677E-1,-2.106097221E0,-9.709571004E-1
7.909308497E0,1.513574123E-1,-1.936255932E0,-1.142969131E0
7.914308497E0,1.627593040E-1,-1.739676476E0,-1.341060638E0
7.919308497E0,1.951044798E-1,-1.542918205E0,-1.512776971E0
7.924308497E0,2.309582233E-1,-1.345445633E0,-1.586946964E0
7.929308497E0,3.003516197E-1,-1.126226425E0,-1.640443683E0
7.934308497E0,3.764779568E-1,-8.680553436E-1,-1.659691811E0
7.939308497E0,4.625306129E-1,-6.027774811E-1,-1.568253994E0
7.944308497E0,5.898522139E-1,-2.933683395E-1,-1.452146769E0
7.949308497E0,7.526473999E-1,3.135108948E-2,-1.336345673E0
7.954308497E0,8.778113127E-1,3.189249039E-1,-1.196029305E0
7.959308497E0,9.877780676E-1,6.142005920E-1,-1.013204932E0
7.964308497E0,1.033693552E0,8.668527603E-1,-9.171150923E-1
7.969308497E0,1.017873287E0,1.041531563E0,-8.592836261E-1
7.974308497E0,9.467099905E-1,1.164358139E0,-7.577761412E-1
7.979308497E0,8.632093668E-1,1.244297981E0,-6.899256110E-1
7.984308497E0,7.546310425E-1,1.272520065E0,-6.071398258E-1
7.989308497E0,6.680617332E-1,1.290627480E0,-4.553226233E-1
7.994308497E0,5.541185141E-1,1.345924377E0,-3.707295656E-1
7.999308497E0,3.933385611E-1,1.365782738E0,-3.153282404E-1
8.004308497E0,2.380706072E-1,1.412117004E0,-2.999546528E-1
8.009308497E0,1.717406511E-1,1.449538231E0,-2.978069782E-1
8.014308497E0,1.732134819E-1,1.479408264E0,-3.346225023E-1
8.019308497E0,3.518911600E-1,1.482735634E0,-3.722674847E-1
8.024308497E0,6.162418127E-1,1.437168121E0,-4.319105148E-1
8.029308497E0,9.262366295E-1,1.492038727E0,-4.332296848E-1
8.034308497E0,1.258837461E0,1.711422920E0,-3.323093653E-1
8.039308497E0,1.534591079E0,2.148652077E0,-8.522903919E-2
8.044308497E0,1.697510958E0,2.766932487E0,3.637169600E-1
8.049308497E0,1.688620210E0,3.400536537E0,9.520111084E-1
8.054308497E0,1.621847868E0,3.996723175E0,1.587089062E0
8.059308497E0,1.618294597E0,4.578267097E0,2.157588005E0
8.064308497E0,1.579784274E0,5.054200172E0,2.472439289E0
8.069308497E0,1.440179229E0,5.437075615E0,2.534940004E0
8.074308497E0,1.057875991E0,5.550823212E0,2.448601961E0
8.079308497E0,5.056571960E-1,5.500430107E0,2.298923731E0
8.084308497E0,-3.271679878E-1,5.229449272E0,2.085838795E0
8.089308497E0,-1.278717995E0,4.893717766E0,1.744233251E0
8.094308497E0,-2.263970613E0,4.467155457E0,1.318245053E0
8.099308497E0,-3.279499531E0,3.891438484E0,8.909380436E-1
8.104308497E0,-4.158251762E0,3.220466614E0,5.217306614E-1
8.109308497E0,-4.542160034E0,2.703391075E0,3.739961386E-1
8.114308497E0,-4.449830055E0,2.399869919E0,5.760282278E-1
8.119308497E0,-4.098026276E0,2.180297852E0,1.078418732E0
8.124308497E0,-3.760570765E0,1.930422783E0,1.708970785E0
8.129308497E0,-3.499597549E0,1.616194725E0,2.273114681E0
8.134308497E0,-3.262988091E0,1.306248665E0,2.704998016E0
8.139308497E0,-2.819262028E0,1.110280037E0,2.952573299E0
8.144308497E0,-2.248743534E0,9.113311768E-1,3.024616241E0
8.149308497E0,-1.826271176E0,4.793882370E-1,2.943434238E0
8.154308497E0,-1.230490923E0,1.362152100E-1,2.735133886E0
8.159308497E0,-4.677058458E-1,-2.375221252E-2,2.330496311E0
8.164308497E0,3.416305780E-1,-1.439218521E-1,1.732075095E0
8.169308497E0,1.018738151E0,-2.828760147E-1,1.060273886E0
8.174308497E0,1.371801615E0,-5.082588196E-1,4.439073801E-1
8.179308497E0,1.409548402E0,-7.932424545E-1,-5.220913887E-2
8.184308497E0,1.358260989E0,-8.491477966E-1,-4.059070349E-1
8.189308497E0,1.305519462E0,-7.629356384E-1,-4.703569412E-1
8.194308497E0,1.107262254E0,-7.110433578E-1,-2.219628096E-1
8.199308497E0,9.032734632E-1,-5.510959625E-1,1.335284710E-1
8.204308497E0,7.533257008E-1,-3.189907074E-1,4.236642122E-1
8.209308497E0,6.221215725E-1,-8.183479309E-3,4.868942499E-1
8.214308497E0,4.475058317E-1,2.049188614E-1,3.916254044E-1
8.219308497E0,8.083605766E-2,3.266134262E-1,2.558985949E-1
8.224308497E0,-4.076163769E-1,3.518381119E-1,1.737376451E-1
8.229308497E0,-8.907420635E-1,3.101072311E-1,7.466125488E-2
8.234308497E0,-1.358517766E0,1.967611313E-1,-3.737330437E-3
8.239308497E0,-1.781174898E0,1.800155640E-2,-9.984052181E-2
8.244308497E0,-2.090650082E0,-2.066202164E-1,-1.451541185E-1
8.249308497E0,-2.188337326E0,-4.613571167E-1,-1.634945869E-1
8.254308497E0,-2.046746731E0,-6.748743057E-1,-2.011442184E-1
8.259308497E0,-1.740977049E0,-9.001426697E-1,-2.000113726E-1
8.264308497E0,-1.404002428E0,-1.143232346E0,-2.217724323E-1
8.269308497E0,-1.105815172E0,-1.406210899E0,-2.696251869E-1
8.274308497E0,-8.706759214E-1,-1.711807251E0,-3.780140877E-1
8.279308497E0,-6.998904943E-1,-2.027469635E0,-5.237153769E-1
8.284308497E0,-5.611270666E-1,-2.302122116E0,-6.870120764E-1
8.289308497E0,-4.363933802E-1,-2.566060543E0,-7.833476663E-1
8.294308497E0,-3.386777639E-1,-2.823760986E0,-8.184129596E-1
8.299308497E0,-2.539182305E-1,-3.049350262E0,-8.468295336E-1
8.304308497E0,-1.363162994E-1,-3.208725929E0,-8.919932246E-1
8.309308497E0,-6.411409378E-2,-3.369064331E0,-8.546876311E-1
8.314308497E0,1.048576832E-2,-3.439593792E0,-8.455007076E-1
8.319308497E0,8.422672749E-2,-3.508482456E0,-8.877075911E-1
8.324308497E0,1.694936752E-1,-3.576394081E0,-9.782025814E-1
8.329308497E0,2.839946747E-1,-3.603415489E0,-1.061375141E0
8.334308497E0,3.490883112E-1,-3.640940666E0,-1.143325567E0
8.339308497E0,3.795773983E-1,-3.685657501E0,-1.187926292E0
8.344308497E0,3.977478743E-1,-3.719699860E0,-1.228729367E0
8.349308497E0,3.968104124E-1,-3.725181580E0,-1.217557311E0
8.354308497E0,3.824371099E-1,-3.711195469E0,-1.175290108E0
8.359308497E0,3.979866505E-1,-3.643625736E0,-1.104892612E0
8.364308497E0,4.530206919E-1,-3.539164066E0,-9.908116460E-1
8.369308497E0,4.749050140E-1,-3.402121544E0,-7.794166207E-1
8.374308497E0,4.987078905E-1,-3.210375309E0,-5.542170405E-1
8.379308497E0,5.410362482E-1,-3.018718243E0,-3.765105009E-1
8.384308497E0,6.175421476E-1,-2.815084934E0,-2.225540876E-1
8.389308497E0,7.278248072E-1,-2.599496841E0,-7.174658775E-2
8.394308497E0,8.476953506E-1,-2.380008221E0,6.890153885E-2
8.399308497E0,9.837396145E-1,-2.188816071E0,1.725921631E-1
8.404308497E0,1.098410845E0,-1.989141464E0,2.392822504E-1
8.409308497E0,1.133534789E0,-1.821016788E0,3.072546721E-1
8.414308497E0,1.092345834E0,-1.671010971E0,3.501417637E-1
8.419308497E0,1.028250575E0,-1.516869068E0,3.636597395E-1
8.424308497E0,1.020141006E0,-1.377696991E0,3.815993071E-1
8.429308497E0,1.072592854E0,-1.214127541E0,4.069489241E-1
8.434308497E0,1.163305640E0,-1.039351463E0,4.194563627E-1
8.439308497E0,1.172015429E0,-8.814830780E-1,4.642643929E-1
8.444308497E0,1.124675274E0,-7.329921722E-1,5.512822866E-1
8.449308497E0,1.076503873E0,-5.413122177E-1,5.725601912E-1
8.454308497E0,1.096417427E0,-3.862800598E-1,6.076420546E-1
8.459308497E0,1.164596081E0,-2.560281754E-1,6.994102001E-1
8.464308497E0,1.263432980E0,-1.561536789E-1,8.468214273E-1
8.469308497E0,1.368069410E0,-9.474658966E-2,9.915971756E-1
8.474308497E0,1.451390505E0,-5.971622467E-2,1.113286495E0
8.479308497E0,1.532843113E0,-1.418209076E-2,1.165423751E0
8.484308497E0,1.580531836E0,3.009700775E-2,1.197733283E0
8.489308497E0,1.589288116E0,1.114711761E-1,1.229417324E0
8.494308497E0,1.583895206E0,1.705102921E-1,1.189510107E0
8.499308497E0,1.593471169E0,2.070369720E-1,1.132677674E0
8.504308497E0,1.603438139E0,2.578458786E-1,1.042995334E0
8.509308497E0,1.634072900E0,3.262710571E-1,9.803627729E-1
8.514308497E0,1.637969732E0,3.919324875E-1,8.900047541E-1
8.519308497E0,1.646320462E0,4.759588242E-1,8.336246014E-1
8.524308497E0,1.595419407E0,5.892333984E-1,7.920774221E-1
8.529308497E0,1.547971845E0,7.331247330E-1,7.555223703E-1
8.534308497E0,1.549815655E0,8.599882126E-1,6.753352880E-1
8.539308497E0,1.616220713E0,8.893070221E-1,4.803884029E-1
8.544308497E0,1.778349638E0,8.845520020E-1,2.232062817E-1
8.549308497E0,2.060688019E0,9.449453354E-1,5.195546150E-2
8.554308497E0,2.365652323E0,1.086819649E0,2.366352081E-2
8.559308497E0,2.622521162E0,1.349086761E0,1.861848831E-1
8.564308497E0,2.730579376E0,1.772958755E0,5.237175226E-1
8.569308497E0,2.678800583E0,2.327257156E0,9.018266201E-1
8.574308497E0,2.540506601E0,2.936355591E0,1.216885090E0
8.579308497E0,2.396582842E0,3.572859764E0,1.415192962E0
8.584308497E0,2.302684784E0,4.195003510E0,1.479909420E0
8.589308497E0,2.223398209E0,4.704590797E0,1.418979645E0
8.594308497E0,1.897720695E0,5.100810051E0,1.296422601E0
8.599308497E0,1.303544283E0,5.296990395E0,1.041572571E0
8.604308497E0,3.310118914E-1,5.375051498E0,7.689118385E-1
8.609308497E0,-8.196679354E-1,5.337373734E0,5.010145903E-1
8.614308497E0,-1.960206985E0,5.289481163E0,1.079914570E-1
8.619308497E0,-3.238627434E0,4.947315216E0,-2.491781116E-1
8.624308497E0,-4.338932991E0,4.566439629E0,-8.898994923E-1
8.629308497E0,-5.221409798E0,4.053875923E0,-1.537039042E0
8.634308497E0,-5.663627625E0,3.464987755E0,-2.135334015E0
8.639308497E0,-5.635276318E0,2.962382317E0,-2.543607235E0
8.644308497E0,-5.201994419E0,2.553246498E0,-2.667778015E0
8.649308497E0,-4.558113098E0,2.193332672E0,-2.564811230E0
8.654308497E0,-3.834009171E0,1.836388588E0,-2.326892138E0
8.659308497E0,-3.122386217E0,1.509376526E0,-2.088264704E0
8.664308497E0,-2.420984745E0,1.201196671E0,-1.852389455E0
8.669308497E0,-1.828894138E0,8.638067245E-1,-1.425933957E0
8.674308497E0,-1.201099873E0,6.870117188E-1,-9.135534763E-1
8.679308497E0,-6.076751351E-1,5.678834915E-1,-4.936836362E-1
8.684308497E0,-5.218183994E-2,4.997425079E-1,-1.862983704E-1
8.689308497E0,4.142475128E-1,5.355262756E-1,2.417171001E-2
8.694308497E0,7.941091061E-1,5.889558792E-1,1.545215845E-1
8.699308497E0,1.030855298E0,5.907135010E-1,1.906521320E-1
8.704308497E0,1.183430433E0,6.428794861E-1,1.615310907E-1
8.709308497E0,1.249486685E0,6.439342499E-1,1.700801849E-1
8.714308497E0,1.225386381E0,6.076517105E-1,1.596773863E-1
8.719308497E0,1.123809695E0,6.207780838E-1,1.268756390E-1
8.724308497E0,1.001094699E0,7.024316788E-1,1.113061905E-1
8.729308497E0,8.427578211E-1,7.781724930E-1,7.302808762E-2
8.734308497E0,6.006932259E-1,8.175506592E-1,1.220337152E-1
8.739308497E0,3.048243523E-1,8.798809052E-1,2.541452646E-1
8.744308497E0,-8.033025265E-2,8.638200760E-1,3.952864408E-1
8.749308497E0,-5.905239582E-1,7.998294830E-1,5.162041187E-1
8.754308497E0,-1.086368799E0,7.212886810E-1,5.337874889E-1
8.759308497E0,-1.440479636E0,5.191144943E-1,5.112996101E-1
8.764308497E0,-1.559232235E0,3.497457504E-1,4.577687979E-1
8.769308497E0,-1.455158353E0,2.138166428E-1,4.389613867E-1
8.774308497E0,-1.235069036E0,6.738471985E-2,4.152401686E-1
8.779308497E0,-1.081831932E0,-1.905145645E-1,4.510122538E-1
8.784308497E0,-9.386552572E-1,-5.095767975E-1,4.967997074E-1
8.789308497E0,-6.924607754E-1,-8.062419891E-1,4.156422615E-1
8.794308497E0,-4.954571724E-1,-1.172485352E0,3.558955193E-1
8.799308497E0,-3.489181399E-1,-1.585501671E0,3.776859045E-1
8.804308497E0,-1.544517279E-1,-1.945582867E0,3.383873701E-1
8.809308497E0,8.475852013E-2,-2.240246773E0,3.372820616E-1
8.814308497E0,3.526697159E-1,-2.561536789E0,3.050463200E-1
8.819308497E0,5.735493898E-1,-2.880301952E0,2.057074308E-1
8.824308497E0,6.758723259E-1,-3.192722321E0,5.952465534E-2
8.829308497E0,7.136774063E-1,-3.495199680E0,-7.907652855E-2
8.834308497E0,7.488981485E-1,-3.751518726E0,-1.970549822E-1
8.839308497E0,7.421915531E-1,-3.956099510E0,-2.914259434E-1
8.844308497E0,7.116311789E-1,-4.124897003E0,-4.044348598E-1
8.849308497E0,6.531460285E-1,-4.225500107E0,-4.543034434E-1
8.854308497E0,5.673005581E-1,-4.281204700E0,-5.313069224E-1
8.859308497E0,4.539285898E-1,-4.301568508E0,-5.773898959E-1
8.864308497E0,3.466534615E-1,-4.293802738E0,-5.856127739E-1
8.869308497E0,2.083394527E-1,-4.241158009E0,-6.524269581E-1
8.874308497E0,6.100666523E-2,-4.133272171E0,-7.492395043E-1
8.879308497E0,2.489006519E-2,-3.953281403E0,-8.230611086E-1
8.884308497E0,2.072775364E-2,-3.771801472E0,-8.643435836E-1
8.889308497E0,-9.622931480E-3,-3.616596222E0,-8.958908916E-1
8.894308497E0,-4.049170017E-2,-3.494408131E0,-9.141752720E-1
8.899308497E0,-6.039845943E-2,-3.393072128E0,-9.186202288E-1
8.904308497E0,-3.795194626E-2,-3.286489010E0,-9.229213595E-1
8.909308497E0,-1.270437241E-2,-3.207978725E0,-9.454779625E-1
8.914308497E0,3.065121174E-2,-3.141849041E0,-9.273825288E-1
8.919308497E0,1.044991016E-1,-3.070396423E0,-8.956505656E-1
8.924308497E0,1.735774279E-1,-2.937068939E0,-8.903444409E-1
8.929308497E0,2.585041523E-1,-2.773676872E0,-9.231520295E-1
8.934308497E0,3.623535633E-1,-2.613564968E0,-9.632210732E-1
8.939308497E0,4.350124598E-1,-2.445497990E0,-9.955175519E-1
8.944308497E0,4.762847424E-1,-2.285098553E0,-1.065981984E0
8.949308497E0,4.648633003E-1,-2.138027191E0,-1.128409505E0
8.954308497E0,4.752877951E-1,-1.971720219E0,-1.164717793E0
8.959308497E0,4.920893908E-1,-1.772127151E0,-1.254265785E0
8.964308497E0,5.004434586E-1,-1.563263416E0,-1.352798939E0
8.969308497E0,4.584790468E-1,-1.348360062E0,-1.409388065E0
8.974308497E0,4.030914307E-1,-1.127955437E0,-1.434676647E0
8.979308497E0,3.747173548E-1,-8.693923950E-1,-1.492318392E0
8.984308497E0,3.612883091E-1,-5.631036758E-1,-1.524637580E0
8.989308497E0,4.348731041E-1,-1.931838989E-1,-1.474852204E0
8.994308497E0,5.550411940E-1,1.744470596E-1,-1.464148521E0
8.999308497E0,6.877331734E-1,5.217170715E-1,-1.426946521E0
9.004308497E0,8.251767159E-1,8.522090912E-1,-1.308544397E0
9.009308497E0,9.260712862E-1,1.168669701E0,-1.182421327E0
9.014308497E0,9.556021690E-1,1.432593346E0,-1.067702293E0
9.019308497E0,1.008244157E0,1.635186195E0,-9.845018387E-1
9.024308497E0,1.052343607E0,1.802544594E0,-8.664511442E-1
9.029308497E0,9.950938225E-1,1.876938820E0,-6.936118007E-1
9.034308497E0,8.871085644E-1,1.903706551E0,-5.216468573E-1
9.039308497E0,7.042968273E-1,1.993893623E0,-4.929986000E-1
9.044308497E0,5.347794294E-1,2.027140617E0,-4.357064962E-1
9.049308497E0,4.073262215E-1,2.083562851E0,-3.395988941E-1
9.054308497E0,3.092864752E-1,2.091596603E0,-3.425527811E-1
9.059308497E0,3.953822851E-1,2.036829948E0,-4.076864719E-1
9.064308497E0,6.032407284E-1,1.912930489E0,-4.170123339E-1
9.069308497E0,7.925986052E-1,1.760866165E0,-4.646807909E-1
9.074308497E0,9.534968138E-1,1.560059547E0,-5.512771606E-1
9.079308497E0,1.067273259E0,1.307152748E0,-6.052876115E-1
9.084308497E0,1.157161355E0,1.022819519E0,-5.748658180E-1
9.089308497E0,1.311939359E0,8.496341705E-1,-4.874137640E-1
9.094308497E0,1.473545313E0,8.184537888E-1,-2.180709839E-1
9.099308497E0,1.640396595E0,1.085322380E0,2.998082638E-1
9.104308497E0,1.713880301E0,1.624642372E0,9.748538733E-1
9.109308497E0,1.815127015E0,2.375404358E0,1.673283219E0
9.114308497E0,1.982587218E0,3.156137466E0,2.212355614E0
9.119308497E0,2.150114298E0,3.814987183E0,2.552864075E0
9.124308497E0,2.035774231E0,4.215685844E0,2.771286964E0
9.129308497E0,1.446669817E0,4.204373360E0,2.802184105E0
9.134308497E0,5.289431810E-1,3.972788811E0,2.597282410E0
9.139308497E0,-5.301760435E-1,3.776207924E0,2.262920141E0
9.144308497E0,-1.619157195E0,3.644830704E0,1.989783764E0
9.149308497E0,-2.669108391E0,3.481356621E0,1.608539343E0
9.154308497E0,-3.431766510E0,3.230390549E0,1.239986300E0
9.159308497E0,-3.736916780E0,2.965765953E0,9.498835802E-1
9.164308497E0,-3.648928642E0,2.739082336E0,9.602693319E-1
9.169308497E0,-3.291234732E0,2.608684540E0,1.078407407E0
9.174308497E0,-2.951964617E0,2.575360298E0,1.352718234E0
9.179308497E0,-2.644592762E0,2.504518509E0,1.838439822E0
9.184308497E0,-2.376234055E0,2.421350479E0,2.346183777E0
9.189308497E0,-2.047420263E0,2.371624947E0,2.648013115E0
9.194308497E0,-1.602812886E0,2.281713486E0,2.737947464E0
9.199308497E0,-1.091933608E0,2.134937286E0,2.655622005E0
9.204308497E0,-5.910049677E-1,1.985395432E0,2.468436956E0
9.209308497E0,-2.318781614E-1,1.694796562E0,2.193402290E0
9.214308497E0,-3.094959259E-2,1.341105461E0,2.010117531E0
9.219308497E0,1.415361166E-1,1.080789566E0,1.801743984E0
9.224308497E0,3.191028833E-1,9.196243286E-1,1.469813108E0
9.229308497E0,5.294150114E-1,8.920030594E-1,1.102334738E0
9.234308497E0,6.859252453E-1,9.030466080E-1,7.120002508E-1
9.239308497E0,7.558230162E-1,8.830194473E-1,4.714748859E-1
9.244308497E0,7.986634970E-1,8.485374451E-1,3.713910580E-1
9.249308497E0,6.217576265E-1,7.773008347E-1,3.127380610E-1
9.254308497E0,4.742263556E-1,6.920099258E-1,1.517649889E-1
9.259308497E0,2.261674404E-1,6.421794891E-1,2.066195011E-2
9.264308497E0,-2.566230297E-2,5.948772430E-1,-1.062492132E-1
9.269308497E0,-3.037362695E-1,4.357919693E-1,-2.793101072E-1
9.274308497E0,-5.951476693E-1,3.296499252E-1,-4.993327856E-1
9.279308497E0,-8.832967281E-1,1.353521347E-1,-6.409946680E-1
9.284308497E0,-1.178011775E0,-1.272230148E-1,-7.171385288E-1
9.289308497E0,-1.369328499E0,-4.130945206E-1,-6.890035868E-1
9.294308497E0,-1.442243218E0,-7.042322159E-1,-5.291894674E-1
9.299308497E0,-1.394314766E0,-9.776182175E-1,-3.209334612E-1
9.304308497E0,-1.277828932E0,-1.204296112E0,-1.513078213E-1
9.309308497E0,-1.118960261E0,-1.411317825E0,-1.072999239E-1
9.314308497E0,-9.688078761E-1,-1.645943165E0,-1.554189920E-1
9.319308497E0,-8.160755634E-1,-1.880865097E0,-2.288383245E-1
9.324308497E0,-6.230864525E-1,-2.106388092E0,-3.002746105E-1
9.329308497E0,-4.550932646E-1,-2.355989456E0,-3.980625868E-1
9.334308497E0,-2.940216064E-1,-2.595814228E0,-4.915231466E-1
9.339308497E0,-1.529188156E-1,-2.825919628E0,-5.809564590E-1
9.344308497E0,-4.718279839E-2,-3.003591537E0,-6.854562163E-1
9.349308497E0,-3.561425209E-2,-3.233504295E0,-7.768947482E-1
9.354308497E0,-1.667304635E-1,-3.430903912E0,-8.545041084E-1
9.359308497E0,-2.599500418E-1,-3.555040359E0,-9.871433377E-1
9.364308497E0,-2.887852192E-1,-3.649118423E0,-1.140160561E0
9.369308497E0,-1.591913104E-1,-3.715577126E0,-1.305701733E0
9.374308497E0,9.761643410E-2,-3.699142933E0,-1.471526265E0
9.379308497E0,3.151161671E-1,-3.653557301E0,-1.552963257E0
9.384308497E0,3.629055023E-1,-3.695817471E0,-1.467034101E0
9.389308497E0,3.541113138E-1,-3.710144997E0,-1.490669012E0
9.394308497E0,3.034062386E-1,-3.705356121E0,-1.430119753E0
9.399308497E0,2.175437212E-1,-3.681977749E0,-1.270177960E0
9.404308497E0,2.423297167E-1,-3.620553493E0,-1.137478113E0
9.409308497E0,4.482855797E-1,-3.462884903E0,-1.055680752E0
9.414308497E0,7.575137615E-1,-3.294147015E0,-8.951402903E-1
9.419308497E0,1.012381792E0,-3.170118332E0,-7.660782337E-1
9.424308497E0,1.154036999E0,-3.096397877E0,-5.977366567E-1
9.429308497E0,1.230560064E0,-2.984038830E0,-3.874794245E-1
9.434308497E0,1.295115829E0,-2.895654678E0,-2.570307255E-1
9.439308497E0,1.374326944E0,-2.808012962E0,-1.793360710E-1
9.444308497E0,1.426037073E0,-2.696942329E0,-1.496335268E-1
9.449308497E0,1.396089077E0,-2.542954445E0,-1.581015587E-1
9.454308497E0,1.371875644E0,-2.368942261E0,-2.252535820E-1
9.459308497E0,1.342557192E0,-2.197570801E0,-2.732309103E-1
9.464308497E0,1.354417562E0,-2.028575897E0,-2.251205444E-1
9.469308497E0,1.380733252E0,-1.815984249E0,-1.695203781E-1
9.474308497E0,1.409841299E0,-1.594259739E0,-9.658765793E-2
9.479308497E0,1.455028534E0,-1.379337311E0,-2.698779106E-3
9.484308497E0,1.500956893E0,-1.143161774E0,1.457122564E-1
9.489308497E0,1.531021476E0,-8.598289490E-1,3.563970327E-1
9.494308497E0,1.525020242E0,-5.654611588E-1,6.094994545E-1
9.499308497E0,1.505321264E0,-2.651405334E-1,8.222852945E-1
9.504308497E0,1.404624701E0,5.029678345E-3,1.031365633E0
9.509308497E0,1.344631076E0,3.154668808E-1,1.193840861E0
9.514308497E0,1.376272440E0,6.108732224E-1,1.282384992E0
9.519308497E0,1.444158316E0,8.815259933E-1,1.340092421E0
9.524308497E0,1.531884551E0,1.106687546E0,1.409561515E0
9.529308497E0,1.632893085E0,1.319569588E0,1.443477750E0
9.534308497E0,1.725571990E0,1.452342033E0,1.408177972E0
9.539308497E0,1.735013723E0,1.517004967E0,1.320816278E0
9.544308497E0,1.695641279E0,1.522303581E0,1.196169496E0
9.549308497E0,1.654001713E0,1.480114937E0,1.153201580E0
9.554308497E0,1.607910991E0,1.443598747E0,1.157444596E0
9.559308497E0,1.635566950E0,1.450325012E0,1.152770638E0
9.564308497E0,1.719063282E0,1.507734299E0,1.088546515E0
9.569308497E0,1.869033456E0,1.536572456E0,9.533004761E-1
9.574308497E0,1.966438293E0,1.550228119E0,8.240239620E-1
9.579308497E0,2.038610458E0,1.528963089E0,7.704298496E-1
9.584308497E0,2.057790995E0,1.549920082E0,7.936887741E-1
9.589308497E0,2.080703020E0,1.732471466E0,9.324460030E-1
9.594308497E0,2.216949224E0,2.110309601E0,1.122657895E0
9.599308497E0,2.496663332E0,2.706192970E0,1.293783665E0
9.604308497E0,2.776391506E0,3.380894661E0,1.368810773E0
9.609308497E0,2.942181587E0,4.070504189E0,1.400630355E0
9.614308497E0,2.935124874E0,4.747615814E0,1.353962421E0
9.619308497E0,2.703304052E0,5.295499802E0,1.239955783E0
9.624308497E0,2.245871544E0,5.746885300E0,1.043045521E0
9.629308497E0,1.529541969E0,6.084802628E0,8.612300158E-1
9.634308497E0,4.544189572E-1,6.344325066E0,8.528785706E-1
9.639308497E0,-8.634428978E-1,6.482645988E0,8.019264936E-1
9.644308497E0,-2.277981043E0,6.454185486E0,6.890720129E-1
9.649308497E0,-3.579161406E0,6.228929520E0,4.693685770E-1
9.654308497E0,-4.719648838E0,5.839957237E0,9.511935711E-2
9.659308497E0,-5.648625851E0,5.281066895E0,-4.674722552E-1
9.664308497E0,-6.335198402E0,4.577676773E0,-1.216073513E0
9.669308497E0,-6.660584927E0,3.873534203E0,-1.999039650E0
9.674308497E0,-6.589084625E0,3.248376846E0,-2.571365833E0
9.679308497E0,-6.234285355E0,2.766498566E0,-2.760161400E0
9.684308497E0,-5.744020939E0,2.338655472E0,-2.695272446E0
9.689308497E0,-5.158247948E0,1.924192429E0,-2.491647243E0
9.694308497E0,-4.429379463E0,1.595065117E0,-2.256268024E0
9.699308497E0,-3.556029320E0,1.280806541E0,-1.895431757E0
9.704308497E0,-2.575536966E0,9.981164932E-1,-1.310155630E0
9.709308497E0,-1.608359098E0,8.232603073E-1,-8.690704703E-1
9.714308497E0,-8.250294924E-1,5.879573822E-1,-5.264168978E-1
9.719308497E0,-3.317631483E-1,3.009748459E-1,-1.712543368E-1
9.724308497E0,-4.332602024E-2,5.690097809E-2,2.255499363E-2
9.729308497E0,1.549203396E-1,-1.419792175E-1,1.351312399E-1
9.734308497E0,3.218566179E-1,-3.388586044E-1,2.080545425E-1
9.739308497E0,4.774943590E-1,-4.597454071E-1,2.789046764E-1
9.744308497E0,5.522052050E-1,-5.083637238E-1,3.396335840E-1
9.749308497E0,5.798653364E-1,-5.798730850E-1,3.550206423E-1
9.754308497E0,5.686568022E-1,-5.750064850E-1,3.308919668E-1
9.759308497E0,4.743103981E-1,-5.557956696E-1,1.901218891E-1
9.764308497E0,3.250657320E-1,-5.168752670E-1,3.302145004E-2
9.769308497E0,1.432688236E-1,-4.625940323E-1,-2.454078197E-2
9.774308497E0,-9.590071440E-2,-4.630832672E-1,-2.884864807E-3
9.779308497E0,-2.993402481E-1,-4.096212387E-1,1.474488974E-1
9.784308497E0,-4.661570787E-1,-4.099197388E-1,2.599821091E-1
9.789308497E0,-5.403974652E-1,-3.576059341E-1,3.727072477E-1
9.794308497E0,-6.869087815E-1,-4.903869629E-1,4.631463289E-1
9.799308497E0,-8.324751258E-1,-6.216888428E-1,5.216754675E-1
9.804308497E0,-9.217301607E-1,-8.235826492E-1,5.660170317E-1
9.809308497E0,-9.361861944E-1,-1.069022179E0,5.902470350E-1
9.814308497E0,-8.857384324E-1,-1.340985298E0,5.796842575E-1
9.819308497E0,-7.576711178E-1,-1.628768921E0,5.600163937E-1
9.824308497E0,-5.626453757E-1,-1.877180576E0,4.812488556E-1
9.829308497E0,-4.057223797E-1,-2.177259922E0,3.636921644E-1
9.834308497E0,-2.686530948E-1,-2.495285034E0,2.258751392E-1
9.839308497E0,-1.450253129E-1,-2.842101097E0,1.291036606E-1
9.844308497E0,-4.445409775E-2,-3.195660591E0,1.864123344E-2
9.849308497E0,3.141212463E-2,-3.520567894E0,-6.694388390E-2
9.854308497E0,9.473836422E-2,-3.809156895E0,-1.219581366E-1
9.859308497E0,1.414110661E-1,-4.064133644E0,-1.599022150E-1
9.864308497E0,1.846215725E-1,-4.268934727E0,-2.238098383E-1
9.869308497E0,2.179154158E-1,-4.411740303E0,-3.364846110E-1
9.874308497E0,2.452951670E-1,-4.515309334E0,-4.862242341E-1
9.879308497E0,2.650620937E-1,-4.588324070E0,-6.109887362E-1
9.884308497E0,2.659806013E-1,-4.614930630E0,-6.906006336E-1
9.889308497E0,2.249773741E-1,-4.621717930E0,-7.516165972E-1
9.894308497E0,1.714355946E-1,-4.582300663E0,-8.611801267E-1
9.899308497E0,1.710432768E-1,-4.485592842E0,-9.281646013E-1
9.904308497E0,1.682643890E-1,-4.323097706E0,-9.800026417E-1
9.909308497E0,2.040704489E-1,-4.156616211E0,-9.591413736E-1
9.914308497E0,2.265578508E-1,-4.005965233E0,-9.504190683E-1
9.919308497E0,2.437267303E-1,-3.816214561E0,-1.010514617E0
9.924308497E0,2.655761242E-1,-3.600957394E0,-1.034575105E0
9.929308497E0,3.041169643E-1,-3.385878563E0,-1.009968996E0
9.934308497E0,4.036335945E-1,-3.153752327E0,-9.174728394E-1
9.939308497E0,4.494252205E-1,-2.958905697E0,-8.463898897E-1
9.944308497E0,3.294663429E-1,-2.824684143E0,-8.168260455E-1
9.949308497E0,1.015282869E-1,-2.655625820E0,-8.026392460E-1
9.954308497E0,-5.248761177E-2,-2.448446274E0,-8.348147273E-1
9.959308497E0,2.283930779E-2,-2.187356472E0,-8.912568688E-1
9.964308497E0,3.151620626E-1,-1.922404289E0,-9.339818358E-1
9.969308497E0,5.641789436E-1,-1.653786182E0,-1.005704522E0
9.974308497E0,6.558622122E-1,-1.450513840E0,-1.168097377E0
9.979308497E0,5.470277071E-1,-1.328313828E0,-1.290097117E0
9.984308497E0,3.167492151E-1,-1.242902756E0,-1.370029569E0
9.989308497E0,1.463826895E-1,-1.140781403E0,-1.445883036E0
9.994308497E0,8.474528790E-2,-9.382638931E-1,-1.509644389E0
9.999308497E0,2.403727770E-1,-6.494493484E-1,-1.545222163E0
1.000430850E1,4.304728508E-1,-3.803682327E-1,-1.554396391E0
1.000930850E1,5.662398338E-1,-7.411861420E-2,-1.507872820E0
1.001430850E1,5.933790207E-1,2.285079956E-1,-1.406059265E0
1.001930850E1,6.400120258E-1,5.488691330E-1,-1.267741919E0
1.002430850E1,7.371368408E-1,8.911170959E-1,-1.128253937E0
1.002930850E1,8.372129202E-1,1.207653046E0,-1.063736439E0
1.003430850E1,8.796883821E-1,1.497338295E0,-1.064321041E0
1.003930850E1,9.003821611E-1,1.765965462E0,-1.042923927E0
1.004430850E1,9.085371494E-1,1.986779213E0,-1.012179255E0
1.004930850E1,8.666931391E-1,2.166172981E0,-9.023512006E-1
1.005430850E1,7.920563221E-1,2.261105537E0,-8.424947858E-1
1.005930850E1,7.321270704E-1,2.294054031E0,-7.921753526E-1
1.006430850E1,6.274924278E-1,2.328415871E0,-6.983671188E-1
1.006930850E1,5.232676268E-1,2.376824379E0,-5.584771633E-1
1.007430850E1,4.751635790E-1,2.403697968E0,-3.714867830E-1
1.007930850E1,5.282741785E-1,2.431944847E0,-1.959241629E-1
1.008430850E1,6.632317305E-1,2.427168846E0,-1.372250319E-1
1.008930850E1,7.112458944E-1,2.295828819E0,-1.373833418E-1
1.009430850E1,7.480999231E-1,2.115601540E0,-1.421765089E-1
1.009930850E1,8.466567993E-1,1.973685265E0,-1.461232901E-1
1.010430850E1,9.448920488E-1,1.814209938E0,-9.183037281E-2
1.010930850E1,1.072433591E0,1.738953590E0,8.383500576E-2
1.011430850E1,1.348924398E0,1.907278061E0,3.917064667E-1
1.011930850E1,1.593953252E0,2.296934128E0,8.499877453E-1
1.012430850E1,1.637471557E0,2.816708565E0,1.370687604E0
1.012930850E1,1.599745870E0,3.437963486E0,1.892371535E0
1.013430850E1,1.511585951E0,3.912678719E0,2.447185040E0
1.013930850E1,1.358021021E0,4.250361443E0,2.852316380E0
1.014430850E1,1.085266948E0,4.431321144E0,2.877614260E0
1.014930850E1,6.079580784E-1,4.391316414E0,2.650676727E0
